time,ax,ay,az,aT
0.0020,-0.6150,0.9512,-3.5692,3.745
0.0030,-0.2946,1.0358,-2.4246,2.653
0.0030,-0.4533,0.8653,-1.7967,2.045
0.0170,-0.8359,0.6538,-1.4410,1.790
0.0180,-0.9755,0.3575,-0.9964,1.440
0.0180,-0.9373,-0.0071,-0.5345,1.079
0.0240,-0.9701,-0.3517,-0.1438,1.042
0.0270,-0.9797,-0.5804,0.1038,1.143
0.0330,-0.9484,-0.6904,0.2225,1.194
0.0370,-0.8904,-0.7450,0.2263,1.183
0.0410,-0.8044,-0.7381,0.0885,1.095
0.0470,-0.7335,-0.6758,-0.1428,1.008
0.0510,-0.6228,-0.6381,-0.3245,0.949
0.0570,-0.5890,-0.5455,-0.4062,0.900
0.0600,-0.6132,-0.4430,-0.4649,0.888
0.0650,-0.5517,-0.3185,-0.5053,0.813
0.0700,-0.4640,-0.2222,-0.5823,0.777
0.0740,-0.3929,-0.1639,-0.7148,0.832
0.0790,-0.3228,-0.1221,-0.8572,0.924
0.0840,-0.3197,-0.0737,-0.9398,0.995
0.0890,-0.3416,-0.0094,-0.8979,0.961
0.0940,-0.3024,0.0097,-0.7075,0.769
0.0980,-0.1683,-0.0264,-0.5027,0.531
0.1030,-0.0424,-0.1255,-0.3311,0.357
0.1180,0.0394,-0.2692,-0.2380,0.362
0.1190,0.0871,-0.3861,-0.1350,0.418
0.1190,0.1005,-0.5048,0.0307,0.516
0.1220,0.0936,-0.5726,0.2085,0.617
0.1270,0.0364,-0.5417,0.3887,0.668
0.1310,-0.0433,-0.4857,0.4969,0.696
0.1360,-0.0150,-0.4398,0.5375,0.695
0.1410,0.0030,-0.3768,0.5248,0.646
0.1460,-0.0185,-0.2864,0.4276,0.515
0.1500,-0.0196,-0.2085,0.3175,0.380
0.1550,0.0572,-0.1284,0.2090,0.252
0.1600,0.1838,-0.1029,0.0161,0.211
0.1640,0.3177,-0.1414,-0.0697,0.355
0.1690,0.4596,-0.2152,-0.0890,0.515
0.1750,0.5462,-0.3202,-0.0917,0.640
0.1790,0.5905,-0.3926,-0.1039,0.717
0.1830,0.5604,-0.4501,-0.0748,0.723
0.1880,0.5075,-0.4558,0.0841,0.687
0.1960,0.4611,-0.4467,0.1890,0.669
0.1980,0.4263,-0.4071,0.2424,0.637
0.2020,0.2454,-0.3036,0.3400,0.518
0.2080,-0.0608,-0.1198,0.5581,0.574
0.2120,-0.2970,0.0680,0.8508,0.904
0.2170,-0.4540,0.2103,1.1315,1.237
0.2220,-0.5366,0.2792,1.2918,1.426
0.2260,-0.5373,0.2667,1.3315,1.460
0.2320,-0.4700,0.1789,1.2620,1.359
0.2360,-0.3548,0.0701,1.1262,1.183
0.2400,-0.1826,0.0295,0.9026,0.921
0.2460,-0.0224,0.0388,0.6294,0.631
0.2500,0.1414,-0.0000,0.4148,0.438
0.2550,0.2893,-0.0421,0.2663,0.395
0.2600,0.4348,-0.0979,0.1533,0.471
0.2640,0.5395,-0.1666,-0.0168,0.565
0.2690,0.5833,-0.3183,-0.2197,0.700
0.2740,0.6142,-0.4826,-0.4811,0.917
0.2780,0.6315,-0.7007,-0.7860,1.228
0.2830,0.5944,-0.9560,-1.0195,1.519
0.2910,0.5213,-1.2108,-1.1548,1.753
0.2930,0.3512,-1.4198,-1.1655,1.870
0.2990,0.1562,-1.5979,-1.1713,1.987
0.3030,-0.0487,-1.7476,-1.2029,2.122
0.3100,-0.2521,-1.8668,-1.2270,2.248
0.3120,-0.5473,-1.9336,-1.2003,2.341
0.3170,-0.9030,-1.8837,-1.0868,2.355
0.3210,-1.2231,-1.8297,-0.9372,2.392
0.3370,-1.4391,-1.7953,-0.7896,2.433
0.3380,-1.4943,-1.9069,-0.8168,2.557
0.3380,-1.4187,-2.1178,-1.1765,2.807
0.3400,-1.2968,-2.4408,-1.6722,3.230
0.3460,-1.1068,-2.7953,-2.2806,3.774
0.3500,-0.9031,-3.1698,-2.9511,4.424
0.3550,-0.5987,-3.5506,-3.7104,5.170
0.3590,-0.2375,-3.9933,-4.5290,6.043
0.3640,0.1513,-4.4468,-5.4404,7.028
0.3680,0.4795,-4.8453,-6.3144,7.974
0.3730,0.8479,-5.1738,-7.2548,8.951
0.3780,1.1574,-5.4447,-8.2820,9.979
0.3830,1.3840,-5.6622,-9.2476,10.931
0.3880,1.4978,-5.7556,-9.9590,11.600
0.3920,1.4208,-5.7613,-10.3854,11.961
0.3970,1.2396,-5.6945,-10.5338,12.038
0.4020,0.9834,-5.5747,-10.4226,11.861
0.4090,0.7075,-5.4364,-10.0776,11.472
0.4110,0.4441,-5.3305,-9.4795,10.884
0.4160,0.1370,-5.2553,-8.5440,10.032
0.4210,-0.2077,-5.2687,-7.2680,8.979
0.4360,-0.5151,-5.2880,-5.7461,7.826
0.4360,-0.7470,-5.3809,-4.0779,6.793
0.4370,-0.9258,-5.4939,-2.4566,6.089
0.4400,-0.8328,-5.5949,-1.1676,5.776
0.4450,-0.6172,-5.6711,-0.0374,5.705
0.4490,-0.4906,-5.5995,0.9035,5.693
0.4540,-0.3028,-5.4117,1.6114,5.655
0.4590,-0.1271,-5.0540,1.8810,5.394
0.4640,-0.0001,-4.5803,1.5968,4.851
0.4690,0.0372,-4.1209,1.2174,4.297
0.4730,-0.0512,-3.6702,0.9652,3.795
0.4780,-0.2623,-3.2683,0.8905,3.398
0.4830,-0.5087,-2.9541,1.1265,3.202
0.4880,-0.7029,-2.6839,1.6013,3.203
0.4930,-0.8200,-2.4202,2.0613,3.283
0.4990,-0.9937,-2.1584,2.5348,3.474
0.5030,-1.2777,-1.7019,3.1594,3.809
0.5520,-1.7073,-1.0392,4.0537,4.520
0.5530,-2.5601,-0.3047,4.9523,5.583
0.5530,-3.8613,0.4202,5.6859,6.886
0.5540,-5.1725,1.1523,6.3492,8.270
0.5540,-6.1443,1.8455,7.1207,9.585
0.5550,-6.6275,2.4282,7.8041,10.523
0.5550,-6.7861,2.9195,8.2095,11.044
0.5560,-6.7373,3.2611,8.1812,11.089
0.5560,-6.6963,3.4599,7.6430,10.734
0.5570,-6.5597,3.5376,6.6651,9.998
0.5580,-6.1797,3.4879,5.2769,8.843
0.5600,-5.6420,3.4711,3.6038,7.541
0.5630,-5.1933,3.5188,2.0048,6.586
0.5680,-4.9858,3.6573,0.7018,6.223
0.5720,-5.0289,3.9212,-0.1948,6.380
0.5770,-5.2915,4.2822,-0.7676,6.850
0.5820,-5.7172,4.7551,-1.3002,7.549
0.5870,-6.1649,5.2493,-1.6889,8.271
0.5930,-6.6835,5.8175,-1.9755,9.078
0.5960,-7.3253,6.4789,-2.1046,10.003
0.6010,-8.2150,7.1947,-2.1068,11.122
0.6060,-9.1721,7.8680,-2.0499,12.257
0.6230,-9.9987,8.4059,-1.9394,13.206
0.6230,-10.4709,8.7917,-1.9490,13.811
0.6240,-10.7128,9.0110,-1.9495,14.134
0.6250,-10.6884,8.9585,-2.0288,14.093
0.6300,-10.2576,8.5356,-2.2925,13.540
0.6350,-9.4196,7.8832,-2.8785,12.616
0.6400,-8.3153,7.0831,-3.8217,11.572
0.6460,-7.1685,6.3363,-4.9022,10.750
0.6510,-6.1171,5.7477,-5.7969,10.201
0.6560,-5.1425,5.2203,-6.3492,9.696
0.6590,-4.2141,4.8768,-6.5046,9.157
0.6630,-3.5472,4.7745,-6.3788,8.722
0.6680,-3.1388,4.8744,-6.0283,8.364
0.6720,-2.9095,5.0804,-5.5558,8.071
0.6780,-2.7369,5.2792,-5.1620,7.874
0.6820,-2.7664,5.5633,-4.7589,7.826
0.6870,-2.9994,5.8190,-4.2387,7.799
0.7020,-2.9524,5.5101,-4.2035,7.533
0.7040,-2.5321,4.4118,-5.1715,7.254
0.7050,-2.0925,3.2586,-6.3536,7.441
0.7060,-1.3405,2.3626,-7.1277,7.628
0.7110,-1.0608,2.1692,-7.2240,7.617
0.7150,-1.3903,2.5477,-6.4608,7.083
0.7200,-1.8573,3.0598,-5.1627,6.282
0.7650,-2.4181,3.4296,-3.6912,5.589
0.7660,-2.8884,3.5037,-2.4489,5.159
0.7670,-3.1286,3.4168,-1.3816,4.834
0.7670,-2.9794,3.0379,-0.4665,4.281
0.7670,-2.4819,2.3545,0.5908,3.472
0.7670,-2.2809,2.1482,1.1521,3.338
0.7680,-1.3822,1.2860,1.5893,2.468
0.7680,-0.4352,0.4773,1.8993,2.006
0.7680,-0.0319,0.2768,1.9945,2.014
0.7690,0.3966,0.1234,1.9346,1.979
0.7720,1.1867,-0.3086,1.8209,2.195
0.7770,1.5682,-0.5335,1.5001,2.235
0.7820,2.1219,-0.6474,1.2480,2.545
0.7860,2.2928,-0.5187,1.2637,2.669
0.7940,2.2659,-0.1510,2.2800,3.218
0.7970,2.1453,-0.0682,3.5798,4.174
0.8010,1.9712,-0.2743,4.4181,4.846
0.8050,1.8827,-0.5057,4.6972,5.086
0.8270,2.0897,-0.7030,4.7508,5.237
0.8280,2.5434,-0.8323,4.6787,5.390
0.8280,3.0345,-0.8394,4.6408,5.608
0.8280,3.2377,-0.6198,4.7348,5.769
0.8290,3.2204,-0.2741,5.2063,6.128
0.8340,3.2172,-0.0500,5.6405,6.494
0.8390,3.5553,-0.3223,5.9797,6.964
0.8430,3.7998,-0.7655,6.6722,7.716
0.8480,3.4361,-1.2031,6.9159,7.816
0.8520,3.2082,-1.7849,6.8560,7.777
0.8570,3.0384,-2.4065,6.8356,7.858
0.8620,2.9661,-3.0028,6.3328,7.610
0.8670,2.9647,-3.5037,5.5296,7.186
0.8730,3.0310,-3.9267,4.4969,6.695
0.8880,3.1593,-4.1415,3.5851,6.323
0.8890,3.1674,-4.2718,2.5871,5.914
0.8900,3.1313,-4.2845,1.2565,5.454
0.8910,3.3301,-4.2068,0.0172,5.365
0.8960,3.3659,-4.1063,-1.0936,5.421
0.9010,3.3025,-4.2893,-1.9435,5.752
0.9050,3.3233,-4.5853,-2.3272,6.123
0.9280,3.6352,-5.2681,-2.8427,7.003
0.9290,4.0979,-5.9191,-3.3514,7.941
0.9290,4.4063,-6.2566,-3.8939,8.586
0.9290,4.3207,-6.3341,-3.8144,8.564
0.9300,3.7867,-6.0832,-3.3031,7.890
0.9350,3.0710,-5.6394,-2.4633,6.878
0.9390,2.6624,-5.0620,-1.6927,5.965
0.9430,2.5884,-4.4899,-1.0371,5.285
0.9480,3.1948,-3.6441,-0.4529,4.867
0.9540,3.2486,-3.4529,-0.1929,4.745
0.9590,2.7067,-3.7897,-0.1970,4.661
0.9620,2.0761,-4.1159,-0.2548,4.617
0.9680,1.4097,-4.1062,-0.1012,4.343
0.9790,0.4903,-3.8112,-0.4737,3.872
0.9800,-0.6446,-3.3266,-1.0867,3.558
0.9820,-1.9678,-2.5638,-2.2106,3.916
0.9860,-3.0805,-1.7250,-3.2502,4.799
0.9900,-3.6404,-0.6245,-4.0080,5.450
0.9950,-2.6491,1.6707,-4.4332,5.428
1.0000,-1.7665,3.2133,-4.0618,5.472
1.0040,-0.9420,3.8428,-2.8475,4.875
1.0220,0.1664,4.2926,-1.8272,4.668
1.0240,0.8337,4.4215,-1.8164,4.852
1.0270,1.0086,4.1527,-2.4419,4.922
1.0820,0.9984,3.8845,-2.6564,4.811
1.0830,0.8212,3.5417,-2.2545,4.278
1.0840,0.6440,3.0352,-1.2483,3.344
1.0840,0.5647,2.4029,0.1777,2.475
1.0840,0.5068,1.6766,1.2322,2.142
1.0850,0.6797,0.7828,1.9304,2.191
1.0850,0.8713,-0.1323,2.2313,2.399
1.0860,1.0410,-1.0495,2.4125,2.829
1.0860,1.1238,-1.8874,2.4183,3.267
1.0860,1.1097,-2.6586,2.3555,3.721
1.0870,1.0962,-3.2752,2.3047,4.152
1.0870,1.1548,-3.9157,2.1912,4.633
1.0870,1.3623,-4.6034,1.9592,5.185
1.0880,1.4868,-4.8719,1.4385,5.293
1.0890,1.4530,-4.6728,0.8599,4.968
1.0960,1.3693,-4.2649,0.3667,4.494
1.1000,1.1116,-3.6834,0.0854,3.848
1.1040,0.7985,-3.1005,0.1687,3.206
1.1120,0.4459,-2.6673,0.6698,2.786
1.1140,0.1186,-2.3849,1.2380,2.690
1.1180,-0.0410,-2.2733,1.1386,2.543
1.1230,-0.1678,-2.0898,0.7593,2.230
1.1430,-0.2489,-1.5942,0.3626,1.654
1.1440,-0.2553,-1.0168,0.3855,1.117
1.1440,-0.1780,-0.6710,0.7295,1.007
1.1440,-0.0107,-0.2789,0.9724,1.012
1.1490,-0.0347,0.3226,1.0182,1.069
1.1530,-0.1379,0.9075,1.0074,1.363
1.1570,-0.2653,1.4620,0.9004,1.737
1.1620,-0.5715,1.9588,0.7209,2.164
1.1660,-1.4246,2.9889,0.6571,3.376
1.1700,-2.4373,4.1139,0.6760,4.829
1.1750,-2.9038,4.3819,0.6247,5.294
1.1800,-3.1261,4.5929,0.1836,5.559
1.1840,-2.8169,4.1886,-0.0378,5.048
1.1900,-2.6674,4.1058,-0.1135,4.898
1.1950,-2.6866,4.1534,-0.1213,4.948
1.2000,-2.6767,4.1438,-0.2385,4.939
1.2050,-2.5611,4.2015,-0.1509,4.923
1.2090,-2.3944,4.3287,0.1088,4.948
1.2490,-2.3176,4.5912,0.3033,5.152
1.2500,-2.6734,5.4523,0.7538,6.119
1.2500,-3.0882,6.2537,0.7887,7.019
1.2500,-3.3392,6.7491,0.6765,7.560
1.2510,-3.6087,6.9819,0.1614,7.861
1.2510,-3.7218,7.1366,-0.0945,8.049
1.2510,-3.8399,7.2585,-0.1237,8.213
1.2510,-4.0226,7.3175,-0.1667,8.352
1.2520,-4.2565,7.1603,-0.2461,8.334
1.2560,-4.4917,6.9960,-0.3458,8.321
1.2610,-4.6606,6.7530,-0.4158,8.216
1.2650,-4.8034,6.3065,-0.2373,7.931
1.2700,-4.7495,5.3832,-0.2465,7.183
1.2750,-4.6758,4.4095,-0.7623,6.472
1.2800,-3.5821,1.9149,-0.8956,4.159
1.2840,-1.4606,-0.6016,-1.0863,1.917
1.2890,-0.7978,-1.0699,-0.7241,1.518
1.2960,-0.2424,-0.9737,-1.5828,1.874
1.2980,-1.0007,-2.2347,-2.2297,3.312
1.3030,-1.8018,-3.3216,-1.6967,4.142
1.3360,-1.7744,-3.3026,-1.5446,4.055
1.3360,-1.2571,-3.4969,-1.1019,3.876
1.3370,-0.2123,-4.6063,0.5232,4.641
1.3370,2.5731,-7.6479,4.0447,9.026
1.3370,6.6351,-12.1906,8.8202,16.445
1.3370,11.2379,-16.5198,13.1556,23.922
1.3380,14.8184,-19.0015,15.9183,28.880
1.3420,17.0267,-20.0523,17.2048,31.433
1.3480,17.7179,-19.5856,16.9371,31.375
1.3510,15.8723,-16.7511,14.3192,27.158
1.3580,12.0380,-12.1948,10.5193,20.107
1.3600,8.1278,-7.6704,7.1672,13.277
1.3660,5.0194,-3.9939,4.8236,8.026
1.3700,2.7864,-1.1738,3.3688,4.527
1.3740,1.1131,0.9307,2.3637,2.773
1.3800,-0.2103,2.5568,1.6727,3.063
1.3840,-1.1070,3.8600,1.1256,4.170
1.3890,-1.6908,4.7486,0.8952,5.120
1.3980,-2.0217,5.6988,0.8746,6.110
1.4030,-2.3934,6.2855,0.2411,6.730
1.4050,-2.5718,6.6073,-1.2096,7.193
1.4070,-3.9854,7.0149,-14.8554,16.905
1.4500,-5.1771,7.0992,-23.7877,25.359
1.4500,-4.6213,5.9749,-20.8660,22.191
1.4510,-3.2187,4.3872,-16.5572,17.428
1.4510,-2.0483,3.1562,-12.2713,12.835
1.4510,-1.3765,2.3316,-8.1618,8.599
1.4520,-0.7396,1.5980,-4.9976,5.299
1.4520,-0.1640,0.8079,-2.6686,2.793
1.4530,0.4943,-0.0210,-0.7881,0.930
1.4530,1.1438,-0.7357,0.7670,1.561
1.4550,1.6400,-1.2593,2.1573,2.988
1.4600,1.9647,-1.6495,3.5038,4.343
1.4640,2.0475,-1.7440,4.6094,5.337
1.4700,1.9811,-1.5097,5.2170,5.781
1.4740,1.7299,-0.9807,5.1257,5.498
1.4790,1.2951,-0.3436,4.3897,4.590
1.4840,0.9014,0.0247,3.5211,3.635
1.4890,0.6411,0.1487,2.6862,2.766
1.5090,0.4725,0.1320,1.9363,1.998
1.5090,0.3578,0.0010,1.0704,1.129
1.5100,0.2039,-0.1413,-0.0421,0.252
1.5100,-0.0007,-0.3140,-1.3297,1.366
1.5120,-0.1820,-0.4622,-2.4972,2.546
1.5170,-0.3207,-0.5334,-3.3035,3.362
1.5210,-0.5176,-0.5061,-3.7189,3.789
1.5260,-0.6820,-0.4118,-3.7716,3.855
1.5310,-0.8643,-0.2289,-3.5335,3.645
1.5350,-0.9788,-0.0724,-3.0884,3.241
1.5400,-0.9800,-0.0353,-2.5534,2.735
1.5450,-0.8995,-0.0532,-1.9249,2.125
1.5500,-0.7857,-0.1524,-1.3070,1.533
1.5550,-0.6271,-0.2877,-0.6959,0.980
1.5590,-0.5050,-0.4495,-0.2170,0.710
1.5640,-0.5440,-0.4730,0.1435,0.735
1.5690,-0.6385,-0.3916,0.3413,0.823
1.5740,-0.8143,-0.2961,0.4587,0.980
1.5800,-0.9251,-0.2627,0.5108,1.089
1.5840,-0.9253,-0.2767,0.5053,1.090
1.5880,-0.9155,-0.3477,0.5025,1.101
1.6150,-1.0965,-0.2583,0.4164,1.201
1.6160,-1.4418,0.1230,0.3213,1.482
1.6170,-1.7401,0.4758,0.2648,1.823
1.6170,-1.7021,0.5065,0.2824,1.798
1.6180,-1.3428,0.1242,0.3884,1.403
1.6180,-1.1919,-0.0686,0.4584,1.279
1.6220,-1.2351,-0.0199,0.4660,1.320
1.6260,-1.1112,-0.1841,0.5353,1.247
1.6310,-1.0666,-0.2240,0.6157,1.252
1.6360,-1.0649,-0.1585,0.7167,1.293
1.6410,-0.9239,-0.2743,0.7948,1.249
1.6450,-0.8687,-0.2464,0.8378,1.232
1.6510,-0.8825,-0.2135,0.8696,1.257
1.6550,-0.7789,-0.2164,0.8848,1.198
1.6610,-0.6939,-0.2286,0.9214,1.176
1.6660,-0.6659,-0.1377,0.9476,1.166
1.6690,-0.6588,0.0226,0.9511,1.157
1.6740,-0.6488,0.1495,0.9746,1.180
1.6810,-0.6236,0.2527,0.9340,1.151
1.6830,-0.5762,0.3777,0.9223,1.151
1.6880,-0.5259,0.5124,0.9012,1.162
1.6920,-0.4775,0.6017,0.8848,1.172
1.7020,-0.4314,0.6623,0.8634,1.171
1.7030,-0.3900,0.7300,0.8297,1.172
1.7070,-0.3440,0.7593,0.7908,1.149
1.7610,-0.3437,0.7860,0.7326,1.128
1.7610,-0.2763,0.7649,0.6906,1.067
1.7620,-0.1923,0.7103,0.6386,0.974
1.7620,-0.1036,0.6605,0.6199,0.912
1.7620,-0.0029,0.5845,0.5651,0.813
1.7620,0.1072,0.5132,0.5438,0.755
1.7620,0.2338,0.4300,0.5129,0.709
1.7620,0.3597,0.3704,0.4612,0.692
1.7630,0.3989,0.3869,0.4099,0.691
1.7630,0.4372,0.4028,0.3430,0.686
1.7630,0.4317,0.4397,0.2533,0.666
1.7630,0.3777,0.5024,0.1795,0.654
1.7680,0.3690,0.5098,0.0884,0.636
1.7740,0.3795,0.5195,0.0230,0.644
1.7790,0.3615,0.5578,-0.0259,0.665
1.7830,0.3461,0.6081,-0.0677,0.703
1.7890,0.2997,0.6916,-0.0878,0.759
1.7920,0.2298,0.8110,-0.1050,0.849
1.7990,0.2227,0.8301,-0.1480,0.872
1.8030,0.2233,0.7945,-0.1876,0.846
1.8070,0.3032,0.7424,-0.1786,0.822
1.8230,0.2823,0.7834,-0.2043,0.857
1.8250,0.2104,0.8596,-0.2606,0.923
1.8260,0.0201,0.8968,-0.3900,0.978
1.8860,-0.0689,0.8303,-0.5093,0.977
1.8860,-0.2263,0.6411,-0.6020,0.908
1.8870,-0.3801,0.4753,-0.6724,0.907
1.8870,-0.5007,0.3596,-0.6780,0.916
1.8870,-0.5490,0.2657,-0.7096,0.936
1.8880,-0.4724,0.1770,-0.6386,0.814
1.8880,-0.3742,0.1172,-0.5507,0.676
1.8880,-0.2665,0.0956,-0.3906,0.482
1.8890,-0.2764,0.1480,-0.3090,0.440
1.8890,-0.3028,0.2746,-0.2886,0.500
1.8890,-0.3740,0.5185,-0.3342,0.721
1.8890,-0.4847,0.8271,-0.3764,1.030
1.8900,-0.4698,1.0429,-0.3773,1.204
1.8900,-0.3942,1.1060,-0.3109,1.215
1.8920,-0.2655,1.1813,-0.2583,1.238
1.9000,-0.1439,1.1873,-0.1309,1.203
1.9010,0.0087,1.1170,-0.0144,1.117
1.9050,0.2115,0.9395,0.1057,0.969
1.9190,0.4285,0.7027,0.1727,0.841
1.9190,0.6834,0.3900,0.2081,0.814
1.9200,0.9260,0.0612,0.2001,0.949
1.9250,1.1705,-0.2743,0.1465,1.211
1.9650,1.3594,-0.5543,0.0853,1.471
1.9660,1.5193,-0.7909,-0.0315,1.713
1.9660,1.6334,-0.9410,-0.1351,1.890
1.9660,1.6850,-1.0623,-0.2616,2.009
1.9670,1.6861,-1.0712,-0.3733,2.032
1.9670,1.6035,-1.0228,-0.4634,1.958
1.9670,1.4585,-0.8768,-0.5227,1.780
1.9680,1.2798,-0.6905,-0.5660,1.561
1.9680,1.0602,-0.4093,-0.5766,1.274
1.9720,0.8498,-0.1264,-0.5068,0.998
1.9770,0.6510,0.1365,-0.4309,0.793
1.9820,0.4758,0.3725,-0.3461,0.696
1.9870,0.3241,0.5886,-0.2975,0.735
1.9920,0.1770,0.7948,-0.2680,0.857
2.0350,0.0701,0.9598,-0.2718,1.000
2.0350,-0.0632,1.0648,-0.2630,1.099
2.0350,-0.1922,1.1288,-0.2796,1.179
2.0360,-0.2427,1.1520,-0.2733,1.209
2.0360,-0.2961,1.1105,-0.2918,1.186
2.0360,-0.3906,1.0571,-0.2677,1.158
2.0360,-0.4161,0.9082,-0.2557,1.031
2.0360,-0.3607,0.7070,-0.2485,0.832
2.0370,-0.2772,0.4296,-0.2435,0.566
2.0390,-0.2161,0.1405,-0.2263,0.343
2.0450,-0.1729,-0.1150,-0.2351,0.314
2.0560,-0.1786,-0.3180,-0.2487,0.441
2.0560,-0.2450,-0.4732,-0.2765,0.600
2.0580,-0.3168,-0.5734,-0.2975,0.719
2.0650,-0.4154,-0.6546,-0.3404,0.847
2.0670,-0.5431,-0.7214,-0.3407,0.965
2.0710,-0.6804,-0.7500,-0.3255,1.064
2.0760,-0.8344,-0.7643,-0.3186,1.176
2.0820,-0.9547,-0.7476,-0.2944,1.248
2.0850,-1.0679,-0.7573,-0.2791,1.339
2.0910,-1.1522,-0.7217,-0.2711,1.386
2.1100,-1.2653,-0.6912,-0.3040,1.473
2.1110,-1.3927,-0.5987,-0.3371,1.553
2.1130,-1.5032,-0.5161,-0.3114,1.620
2.1140,-1.6136,-0.4649,-0.2625,1.700
2.1790,-1.6233,-0.4712,-0.1936,1.701
2.1800,-1.6354,-0.4537,-0.0973,1.700
2.1800,-1.8842,-0.3170,-0.0932,1.913
2.1800,-1.9263,-0.2233,-0.1579,1.946
2.1810,-1.8431,-0.2320,-0.1741,1.866
2.1810,-1.7874,-0.2546,-0.1806,1.814
2.1810,-1.7234,-0.3364,-0.1272,1.761
2.1820,-1.6846,-0.4129,-0.0718,1.736
2.1820,-1.6351,-0.4696,0.0144,1.701
2.1820,-1.5438,-0.5903,0.0930,1.655
2.1830,-1.4922,-0.7153,0.1636,1.663
2.1830,-1.4352,-0.8374,0.2405,1.679
2.1840,-1.4351,-0.9187,0.3114,1.732
2.1840,-1.4730,-0.9713,0.3451,1.798
2.1840,-1.5346,-1.0360,0.3700,1.888
2.1850,-1.7133,-1.0746,0.3762,2.057
2.1910,-1.9159,-1.0968,0.4399,2.251
2.1950,-2.1419,-1.0715,0.5061,2.448
2.2000,-2.3576,-1.0104,0.4575,2.606
2.2050,-2.4815,-0.9734,0.4115,2.697
2.2100,-2.5710,-0.9102,0.3724,2.753
2.2140,-2.6335,-0.8808,0.2825,2.791
2.2190,-2.7358,-0.8637,0.1639,2.874
2.2230,-2.8253,-0.7991,0.0282,2.936
2.2470,-2.9207,-0.7324,-0.1332,3.014
2.2470,-2.9645,-0.6612,-0.3061,3.053
2.2470,-2.9683,-0.6521,-0.4794,3.077
2.2480,-2.8818,-0.6070,-0.6410,3.014
2.2480,-2.7479,-0.5688,-0.8672,2.937
2.2530,-2.4997,-0.5973,-1.0539,2.778
2.2570,-2.2399,-0.6588,-1.2326,2.640
2.2620,-1.9452,-0.7367,-1.3852,2.499
2.2680,-1.6400,-0.7955,-1.5597,2.399
2.2710,-1.3533,-0.8354,-1.6604,2.299
2.2770,-1.1051,-0.8207,-1.7529,2.229
2.2800,-0.9384,-0.7971,-1.8594,2.230
2.2850,-0.7965,-0.7432,-1.9548,2.238
2.2910,-0.6959,-0.6112,-2.0734,2.271
2.3170,-0.6534,-0.4850,-2.2166,2.361
2.3170,-0.5853,-0.3381,-2.3397,2.435
2.3180,-0.5152,-0.2113,-2.5465,2.607
2.3180,-0.4407,-0.1117,-2.8986,2.934
2.3180,-0.4021,0.0203,-3.3093,3.334
2.3190,-0.3200,0.1011,-3.6711,3.686
2.3240,-0.1535,0.0947,-3.8663,3.870
2.3300,-0.0368,0.0322,-3.8319,3.832
2.3330,0.0801,-0.0864,-3.6133,3.615
2.3380,0.1969,-0.2300,-3.3461,3.360
2.3420,0.3030,-0.4006,-3.0707,3.112
2.3480,0.3957,-0.5766,-2.7985,2.885
2.3510,0.4336,-0.7647,-2.5721,2.718
2.3560,0.4570,-0.9338,-2.4080,2.623
2.3610,0.4629,-1.1121,-2.2491,2.551
2.3670,0.4126,-1.2350,-2.0997,2.471
2.3700,0.3081,-1.2953,-2.0597,2.453
2.3750,0.1635,-1.3190,-2.0899,2.477
2.3850,-0.0283,-1.2680,-2.2046,2.543
2.3870,-0.2528,-1.1540,-2.3679,2.646
2.3900,-0.4283,-1.0346,-2.5636,2.798
2.3940,-0.6140,-0.9360,-2.7425,2.962
2.4420,-0.7471,-0.8677,-2.9628,3.176
2.4430,-0.8678,-0.8370,-3.1536,3.376
2.4440,-0.9129,-0.8964,-3.4096,3.642
2.4440,-0.9421,-1.0292,-3.6622,3.919
2.4440,-0.9591,-1.2425,-3.8626,4.169
2.4450,-0.9807,-1.4886,-3.9544,4.338
2.4450,-0.9803,-1.8012,-3.9191,4.423
2.4460,-0.9982,-2.1584,-3.8363,4.514
2.4460,-1.0273,-2.4936,-3.6798,4.562
2.4470,-1.1081,-2.7802,-3.5070,4.611
2.4470,-1.2378,-3.0613,-3.3564,4.708
2.4510,-1.3658,-3.2818,-3.2281,4.802
2.4560,-1.5155,-3.4868,-3.0482,4.873
2.4610,-1.5694,-3.6860,-2.9848,4.996
2.4650,-1.5607,-3.8817,-3.0237,5.162
2.4700,-1.5877,-4.0146,-3.0702,5.298
2.4750,-1.6550,-4.1255,-3.1417,5.443
2.4820,-1.7575,-4.1861,-3.2703,5.595
2.4850,-1.8426,-4.1273,-3.3876,5.649
2.4890,-1.9674,-4.0261,-3.5376,5.709
2.4940,-2.1031,-3.8300,-3.6708,5.707
2.5000,-2.1538,-3.6135,-3.8833,5.725
2.5040,-2.1098,-3.3957,-4.1417,5.756
2.5080,-2.0052,-3.1696,-4.5746,5.916
2.5370,-1.8163,-2.9498,-5.2128,6.259
2.5370,-1.5456,-2.6958,-6.1180,6.862
2.5380,-1.2797,-2.3908,-7.2861,7.774
2.5380,-0.9418,-2.0561,-8.6900,8.980
2.5380,-0.5419,-1.7889,-10.3577,10.525
2.5390,-0.0159,-1.7050,-12.2417,12.360
2.5420,0.5982,-1.9480,-13.8953,14.044
2.5490,1.0803,-2.5029,-14.4075,14.663
2.5530,1.2173,-3.0494,-12.6073,13.028
2.5560,0.9847,-3.1360,-10.0473,10.571
2.5600,0.6123,-2.9561,-7.8974,8.455
2.5650,0.1332,-2.6819,-6.2922,6.841
2.5700,-0.2014,-2.6018,-5.0930,5.723
2.5740,-0.7628,-2.5401,-4.4464,5.177
2.5800,-1.2300,-2.4881,-4.0002,4.869
2.5840,-1.6469,-2.5151,-3.4155,4.550
2.5890,-2.0591,-2.4997,-2.6718,4.198
2.5940,-2.4029,-2.5920,-2.0828,4.102
2.6010,-2.6410,-2.8538,-1.6264,4.215
2.6040,-2.7406,-3.1415,-1.2121,4.342
2.6080,-2.7899,-3.3521,-0.8787,4.449
2.6230,-2.8833,-3.4646,-0.5316,4.539
2.6260,-3.0038,-3.4815,-0.0401,4.598
2.6270,-2.9905,-3.5203,0.4243,4.638
2.6290,-2.8601,-3.6266,0.7874,4.685
2.6880,-2.6126,-3.7764,1.0468,4.710
2.6890,-2.1288,-3.8364,1.3130,4.580
2.6890,-1.4959,-3.8761,1.5178,4.423
2.6900,-0.8271,-3.9200,1.7272,4.363
2.6900,-0.1331,-3.9372,2.0477,4.440
2.6910,0.6732,-4.0046,2.4855,4.761
2.6910,1.6144,-4.1893,2.9499,5.372
2.6920,2.5265,-4.3242,3.4656,6.090
2.6920,3.2192,-4.3787,4.0275,6.764
2.6930,3.9527,-4.3717,4.6708,7.520
2.6930,4.6019,-4.3248,5.4121,8.317
2.6940,5.0520,-4.1014,6.3383,9.084
2.6940,5.5260,-3.9331,7.2278,9.912
2.6950,5.7920,-3.6186,7.6946,10.288
2.6990,5.7793,-3.1122,7.8584,10.239
2.7030,5.7129,-2.5690,7.9286,10.104
2.7080,5.3711,-1.8623,7.6538,9.534
2.7120,4.8527,-0.9438,6.7372,8.356
2.7180,4.3804,-0.0241,5.5674,7.084
2.7220,3.8821,0.8611,4.4031,5.933
2.7280,3.3403,1.6258,3.6137,5.183
2.7550,2.8672,2.2553,3.1694,4.832
2.7560,2.3976,2.7212,2.4601,4.382
2.7560,1.9188,2.8772,0.7248,3.533
2.7570,0.9740,2.3907,-4.9163,5.553
2.7570,-0.3135,1.7192,-8.4754,8.654
2.7580,-1.1214,1.2076,-7.2442,7.429
2.7610,-1.2975,0.9297,-4.3622,4.645
2.7650,-1.2847,0.7588,-1.4330,2.069
2.7710,-1.0378,1.0278,0.8411,1.685
2.7750,-0.9525,1.3493,2.9584,3.388
2.7790,-0.9585,1.4675,4.5724,4.897
2.7850,-0.9251,1.5825,5.7651,6.049
2.7890,-1.0007,1.5959,6.3360,6.610
2.7930,-1.2226,1.6286,6.4814,6.794
2.7990,-1.4140,1.6209,6.2299,6.591
2.8040,-1.6444,1.4881,5.7074,6.123
2.8080,-2.1179,1.3598,5.1440,5.727
2.8120,-2.5239,1.1077,4.7049,5.453
2.8370,-2.8453,0.9637,4.3864,5.316
2.8370,-2.9845,0.8060,4.1545,5.179
2.8370,-3.0043,0.6912,4.0711,5.107
2.8380,-2.8054,0.6024,4.2003,5.087
2.8380,-2.6562,0.6548,4.5959,5.348
2.8410,-2.4757,0.7907,5.0813,5.707
2.8450,-2.1685,1.0240,5.5594,6.055
2.8510,-1.7512,1.3521,6.0980,6.487
2.8560,-1.2359,1.7547,6.6296,6.968
2.8610,-0.8039,2.2479,7.0699,7.462
2.8650,-0.4575,2.7352,7.4108,7.913
2.8700,-0.2441,3.2183,7.6015,8.258
2.8740,-0.2269,3.6735,7.6745,8.511
2.8810,-0.5270,4.0814,7.6164,8.657
2.8840,-0.6091,4.5437,7.5137,8.802
2.8890,-0.8795,4.8431,7.2686,8.778
2.8920,-1.1694,5.1716,6.8863,8.691
2.9020,-1.3779,5.4175,6.4958,8.570
2.9550,-1.4258,5.5881,6.0782,8.379
2.9560,-1.3581,5.7123,5.6633,8.158
2.9570,-1.1606,5.6726,5.2613,7.823
2.9570,-0.8454,5.3756,4.8060,7.260
2.9570,-0.4852,4.8426,4.2690,6.474
2.9580,-0.1675,4.2235,3.5330,5.509
2.9580,0.0659,3.5753,2.4255,4.321
2.9580,0.3333,2.8857,0.8981,3.041
2.9590,0.5897,2.2136,-0.9515,2.481
2.9590,0.8982,1.5155,-2.9422,3.429
2.9590,1.2812,0.7975,-4.9110,5.138
2.9600,1.6993,0.0873,-6.7188,6.931
2.9600,2.0106,-0.5181,-8.0545,8.318
2.9640,2.0520,-0.8567,-8.5889,8.872
2.9690,1.7492,-1.0022,-8.7150,8.945
2.9740,1.2152,-0.9892,-8.2307,8.378
2.9790,0.6041,-0.8688,-7.2275,7.305
2.9830,0.0409,-0.6107,-6.1768,6.207
2.9880,-0.3931,-0.3330,-4.9592,4.986
2.9920,-0.6309,-0.0989,-3.7345,3.789
3.0190,-0.8156,0.1043,-2.7317,2.853
3.0200,-0.8932,0.2603,-1.9305,2.143
3.0200,-0.7692,0.2591,-1.5119,1.716
3.0200,-0.5614,0.2553,-1.5125,1.633
3.0200,-0.2468,0.1955,-1.6301,1.660
3.0210,0.1803,0.1182,-1.6678,1.682
3.0270,0.6304,0.0653,-1.6556,1.773
3.0310,1.0501,0.0305,-1.5545,1.876
3.0360,1.4154,0.0350,-1.4281,2.011
3.0420,1.6758,0.0348,-1.2817,2.110
3.0450,1.7306,0.1041,-1.0799,2.042
3.0500,1.6132,0.2718,-0.9553,1.894
3.0550,1.3999,0.5071,-0.9905,1.788
3.0590,1.1573,0.6860,-1.2902,1.864
3.0640,0.9272,0.8541,-1.8085,2.204
3.0690,0.6730,0.9735,-2.5384,2.801
3.0740,0.3667,1.0894,-3.3625,3.554
3.0790,0.0290,1.1782,-3.9197,4.093
3.0950,-0.2920,1.1545,-4.1805,4.347
3.0980,-0.4195,0.9993,-4.1026,4.243
3.1000,-0.2334,0.6061,-3.3912,3.453
3.1020,0.3044,0.0090,-2.1500,2.171
3.1110,1.1440,-0.7674,-0.5457,1.482
3.1120,2.1467,-1.5051,1.3823,2.964
3.1140,3.1913,-2.2543,3.5012,5.246
3.1520,4.0325,-2.8572,5.3670,7.296
3.1530,4.8728,-3.5391,6.8164,9.096
3.1530,5.9235,-4.3167,7.9911,10.843
3.1530,6.7685,-4.8996,8.7217,12.078
3.1540,7.4485,-5.2791,8.9732,12.801
3.1540,7.8942,-5.4752,8.7508,12.995
3.1540,8.1121,-5.5224,8.1985,12.787
3.1550,7.2754,-4.8139,7.1619,11.287
3.1550,5.6944,-3.4006,5.8741,8.860
3.1580,4.3106,-1.9176,4.5178,6.532
3.1630,2.9739,-0.5278,2.8340,4.142
3.1700,1.8020,0.6997,1.6901,2.568
3.1730,1.0176,1.5954,1.5873,2.470
3.1770,0.5418,2.2071,1.7886,2.892
3.1830,0.1758,2.6426,1.9089,3.265
3.1880,-0.1242,2.9779,1.9183,3.544
3.1920,-0.3414,3.1727,1.8274,3.677
3.1980,-0.5257,3.2128,1.6271,3.639
3.2270,-0.6677,3.1818,1.4571,3.563
3.2280,-0.7907,3.0325,1.2719,3.382
3.2290,-0.8828,2.8534,1.0433,3.164
3.2290,-0.8407,2.6112,0.8716,2.878
3.2290,-0.7579,2.2941,0.7666,2.535
3.2300,-0.7012,1.9118,0.6853,2.149
3.2300,-0.6156,1.4189,0.6543,1.679
3.2360,-0.4913,0.9254,0.7410,1.283
3.2400,-0.3833,0.4626,0.8524,1.043
3.2450,-0.2984,-0.0055,1.0821,1.123
3.2490,-0.1979,-0.4380,1.2127,1.304
3.2540,-0.1055,-0.8804,1.3163,1.587
3.2590,0.0147,-1.2608,1.4458,1.918
3.2630,0.0122,-1.5435,1.5939,2.219
3.2690,-0.0652,-1.7956,1.7033,2.476
3.2730,-0.1553,-1.9072,1.7645,2.603
3.2780,-0.2460,-1.9429,1.8251,2.677
3.2830,-0.3595,-1.8768,1.8873,2.686
3.2880,-0.5128,-1.7522,1.8790,2.620
3.2920,-0.6919,-1.5717,1.8573,2.529
3.3100,-0.9903,-1.2374,1.8552,2.440
3.3110,-1.2690,-0.8664,1.8553,2.409
3.3120,-1.5400,-0.4396,1.8143,2.420
3.3120,-1.8052,0.0121,1.8322,2.572
3.3580,-2.1026,0.4244,1.8465,2.830
3.3580,-2.3364,0.8309,1.8069,3.068
3.3590,-2.5633,1.1722,1.7876,3.338
3.3590,-2.7570,1.4365,1.8931,3.640
3.3590,-2.9149,1.6313,2.0466,3.918
3.3590,-3.1275,1.8264,2.1739,4.224
3.3600,-3.2553,1.9788,2.3298,4.465
3.3600,-3.3004,2.0509,2.6147,4.683
3.3610,-3.4538,2.1815,2.7747,4.938
3.3610,-3.4613,2.1606,2.8221,4.961
3.3630,-3.3255,1.9503,2.7779,4.752
3.3720,-3.1376,1.6654,2.7187,4.473
3.3730,-2.9698,1.4085,2.5528,4.162
3.3770,-2.8800,1.1652,2.3250,3.880
3.3830,-2.8015,0.9423,2.2000,3.685
3.3870,-2.6984,0.7685,2.1030,3.506
3.3920,-2.6236,0.5934,2.0199,3.364
3.3960,-2.6151,0.4408,1.9643,3.300
3.4200,-2.5223,0.2891,1.9249,3.186
3.4200,-2.3571,0.1167,1.8963,3.027
3.4210,-2.1319,-0.0765,1.8471,2.822
3.4210,-2.0212,-0.1379,1.7876,2.702
3.4210,-1.9485,-0.1133,1.7268,2.606
3.4240,-1.8776,-0.0338,1.6947,2.530
3.4310,-1.7367,0.0287,1.6936,2.426
3.4350,-1.5663,0.0214,1.6683,2.288
3.4390,-1.4695,0.1068,1.6208,2.190
3.4440,-1.3744,0.1077,1.5008,2.038
3.4500,-1.2522,0.0527,1.3533,1.845
3.4540,-1.1224,-0.0604,1.2235,1.661
3.4580,-1.0257,-0.2464,1.1013,1.525
3.4620,-0.9100,-0.4119,0.9771,1.397
3.4690,-0.7633,-0.5165,0.7982,1.219
3.4730,-0.6912,-0.6128,0.5712,1.086
3.4770,-0.6744,-0.7080,0.4052,1.058
3.4840,-0.7154,-0.7926,0.2138,1.089
3.4870,-0.8308,-0.8184,0.0535,1.167
3.4900,-0.9558,-0.8643,-0.1336,1.296
3.4950,-0.9924,-0.9659,-0.2716,1.411
3.5000,-0.9744,-1.1925,-0.5044,1.620
3.5040,-0.9163,-1.3885,-0.7114,1.809
3.5090,-0.9403,-1.5971,-0.9343,2.075
3.5130,-0.9721,-1.7533,-1.1335,2.303
3.5210,-0.9830,-1.8908,-1.3095,2.501
3.5240,-0.9088,-2.0121,-1.4752,2.655
3.5280,-0.8452,-2.1767,-1.7491,2.917
3.5790,-0.8879,-2.3203,-2.3262,3.403
3.5800,-0.9646,-2.5122,-3.0785,4.089
3.5800,-1.0176,-2.7027,-3.8184,4.787
3.5810,-1.0320,-2.9733,-4.8665,5.796
3.5810,-1.2197,-3.2317,-7.4325,8.196
3.5810,-1.3126,-3.6970,-11.8284,12.462
3.5810,-1.5929,-3.9568,-13.6534,14.304
3.5820,-1.9975,-3.7661,-13.2123,13.883
3.5820,-2.4169,-3.5941,-12.0128,12.770
3.5820,-2.6538,-3.5655,-11.2400,12.087
3.5830,-2.6349,-3.7847,-11.0076,11.935
3.5850,-2.6272,-4.0342,-12.6711,13.555
3.5900,-2.2526,-4.6454,-16.9805,17.748
3.5950,-1.5313,-5.5414,-19.4937,20.324
3.6000,-0.5111,-6.1970,-15.7292,16.914
3.6040,-0.0002,-6.2928,-10.0272,11.838
3.6090,0.1118,-5.8969,-5.5226,8.080
3.6140,0.0561,-5.5084,-2.5727,6.080
3.6200,-0.1660,-5.1467,-0.9634,5.239
3.6240,-0.6268,-4.8190,-0.4377,4.879
3.6280,-1.0589,-4.4998,-0.7718,4.687
3.6460,-1.3594,-4.2504,-1.8450,4.829
3.6470,-1.5378,-4.2713,-3.1219,5.510
3.6470,-1.7375,-4.4279,-3.9135,6.160
3.6490,-1.9340,-4.6716,-3.7530,6.297
3.6510,-2.0329,-4.7608,-3.2400,6.107
3.6560,-1.9263,-4.9382,-3.0380,6.109
3.6600,-2.0408,-4.9333,-2.9229,6.087
3.6660,-1.9919,-5.1060,-3.0444,6.270
3.6700,-1.8156,-5.1331,-3.3038,6.369
3.6750,-1.5029,-5.1221,-3.7137,6.503
3.6790,-1.2239,-4.8701,-3.8554,6.331
3.6840,-1.4137,-4.3186,-3.4966,5.734
3.6900,-1.6880,-3.7476,-2.5302,4.827
3.6950,-1.8206,-3.2892,-1.1794,3.940
3.7090,-1.7655,-2.9268,-0.0346,3.418
3.7120,-1.2958,-2.7014,0.8721,3.120
3.7130,-0.7600,-2.5377,1.5464,3.067
3.7610,-0.1758,-2.5219,2.0058,3.227
3.7610,0.5677,-2.6451,2.3903,3.610
3.7620,1.4100,-2.8788,2.7443,4.220
3.7620,2.2872,-3.1515,3.1196,4.990
3.7630,3.1771,-3.4992,3.4261,5.837
3.7630,4.0073,-3.8118,3.4901,6.540
3.7640,4.7646,-4.1257,3.6795,7.298
3.7640,5.5156,-4.4167,4.1992,8.220
3.7650,6.1206,-4.5582,4.7789,9.004
3.7650,6.5824,-4.5002,5.4064,9.634
3.7650,6.8125,-4.1851,6.0845,10.047
3.7660,6.9437,-3.7847,6.7808,10.417
3.7710,6.9101,-3.2436,7.1785,10.479
3.7750,6.7029,-2.4777,7.2903,10.209
3.7800,6.5074,-1.5657,7.1443,9.790
3.7850,6.0487,-0.5333,6.3393,8.778
3.7900,5.2221,0.5739,5.5435,7.637
3.7940,4.3867,1.4956,4.7742,6.654
3.7980,3.5500,2.1967,3.7219,5.593
3.8060,2.8260,2.5481,1.1930,3.988
3.8080,1.9537,2.8055,-1.9696,3.946
3.8130,1.0345,2.8171,-3.6487,4.724
3.8560,0.2216,2.7453,-3.9094,4.782
3.8560,0.0258,2.4794,-2.6694,3.643
3.8570,0.0765,2.1839,-0.8975,2.362
3.8570,0.0405,2.0884,0.7509,2.220
3.8580,-0.3749,2.1251,2.0332,2.965
3.8580,-0.6812,2.2228,2.8728,3.696
3.8580,-1.3024,2.3071,3.4590,4.357
3.8590,-1.6363,2.6557,4.0994,5.151
3.8590,-2.1260,2.9824,4.8267,6.059
3.8600,-2.5961,3.1297,5.1339,6.549
3.8650,-2.9688,3.1971,5.2490,6.825
3.8700,-3.2467,3.1654,5.3757,7.033
3.8750,-3.6128,3.0499,5.4363,7.205
3.8800,-3.9087,2.8129,5.4210,7.251
3.8850,-4.3110,2.5432,5.3345,7.315
3.8890,-4.5678,2.2113,5.2938,7.333
3.8940,-4.4957,1.8892,5.1807,7.115
3.9000,-4.3878,1.5134,5.0562,6.864
3.9200,-4.1357,1.1387,5.0795,6.648
3.9260,-3.7055,0.8302,5.1116,6.368
3.9280,-3.2259,0.6074,5.2669,6.206
3.9290,-2.7517,0.4482,5.5109,6.176
3.9290,-2.2534,0.4461,5.8319,6.268
3.9300,-1.7056,0.4811,6.2396,6.486
3.9310,-1.0798,0.5842,6.6096,6.723
3.9670,-0.4814,0.7928,6.8525,6.915
3.9680,0.0419,1.0799,7.0537,7.136
3.9680,0.4315,1.4711,7.2774,7.437
3.9680,0.6072,1.9655,7.4517,7.730
3.9690,0.6478,2.5058,7.4570,7.893
3.9690,0.5377,3.0653,7.3166,7.951
3.9690,0.3461,3.6610,7.0565,7.957
3.9690,0.0647,4.2359,6.7617,7.979
3.9740,-0.2332,4.7687,6.4595,8.032
3.9800,-0.5174,5.2124,6.1558,8.083
3.9840,-0.7679,5.5507,5.8080,8.070
3.9890,-0.9147,5.6861,5.4549,7.932
3.9930,-0.8836,5.6239,5.0509,7.611
3.9990,-0.7041,5.2899,4.5911,7.040
4.0030,-0.4397,4.7009,3.9912,6.182
4.0080,-0.2161,4.0645,3.1261,5.132
4.0130,-0.0355,3.3730,1.9136,3.878
4.0570,0.0788,2.6881,0.4912,2.734
4.0580,0.1867,1.9496,-1.2866,2.343
4.0580,0.2427,1.1908,-3.0945,3.325
4.0580,0.3425,0.4043,-4.9300,4.958
4.0590,0.4288,-0.3700,-6.8333,6.857
4.0590,0.6149,-1.1632,-8.7222,8.821
4.0600,0.8114,-1.9285,-10.5340,10.740
4.0600,0.9563,-2.5706,-11.7022,12.019
4.0600,0.9706,-2.9303,-12.1323,12.519
4.0610,0.8414,-3.0269,-11.8210,12.231
4.0650,0.6656,-2.9319,-11.0001,11.404
4.0700,0.3377,-2.6180,-9.7788,10.129
4.0750,0.2914,-2.4949,-8.4116,8.779
4.0780,0.2186,-2.4348,-7.1897,7.594
4.0830,0.2443,-2.3652,-6.3712,6.800
4.0880,0.4580,-2.3965,-5.7792,6.273
4.0920,0.8188,-2.3500,-5.2223,5.785
4.0970,1.3668,-2.2523,-4.3378,5.075
4.1020,1.9873,-2.1684,-3.1861,4.336
4.1070,2.5784,-1.8572,-2.0304,3.771
4.1120,2.8451,-1.2427,-1.0814,3.288
4.1260,2.8410,-0.4565,-0.3175,2.895
4.1280,2.5151,0.3892,0.2601,2.558
4.1300,2.0266,1.2011,0.5629,2.422
4.1310,1.4175,2.0228,0.4390,2.509
4.1890,0.7195,2.8207,0.0119,2.911
4.1900,-0.2270,3.5116,-0.4198,3.544
4.1900,-1.4022,4.1193,-0.7764,4.420
4.1900,-2.2724,4.4796,-1.2494,5.176
4.1910,-2.6542,4.4519,-1.5818,5.419
4.1910,-2.4191,3.9812,-1.2053,4.812
4.1910,-1.6539,3.1083,0.0930,3.522
4.1910,-0.4414,2.0290,2.3013,3.100
4.1920,1.0637,0.5954,4.7804,4.933
4.1920,2.6580,-0.8152,6.7552,7.305
4.1920,4.1519,-2.1410,7.8404,9.127
4.1920,5.3888,-3.3467,8.2270,10.389
4.1930,6.6757,-4.6124,8.4741,11.732
4.1970,7.8119,-5.7735,8.4860,12.898
4.2020,8.6471,-6.4672,8.4008,13.681
4.2060,9.4573,-7.1332,8.4031,14.524
4.2120,9.6318,-7.0852,8.1656,14.479
4.2160,9.1155,-6.2898,7.6841,13.480
4.2210,7.5387,-4.5981,6.7667,11.125
4.2250,5.9129,-3.0139,5.7760,8.798
4.2310,4.7680,-1.7688,4.8889,7.054
4.2550,3.8079,-0.7446,4.0822,5.632
4.2550,2.8811,0.2323,3.4193,4.477
4.2560,2.1651,1.1275,2.8752,3.772
4.2560,1.5118,1.8113,2.4380,3.393
4.2560,0.9568,2.2790,2.0638,3.220
4.2600,0.5854,2.5405,1.7242,3.126
4.2660,0.3785,2.6173,1.4309,3.007
4.2700,0.2142,2.5459,1.1650,2.808
4.2740,0.0141,2.4460,0.9414,2.621
4.2780,-0.3378,2.4136,0.8034,2.566
4.2820,-0.6772,2.4015,0.7210,2.597
4.2870,-0.9720,2.2787,0.7013,2.575
4.2910,-1.2137,2.1246,0.7380,2.556
4.2960,-1.2584,1.7485,0.8335,2.310
4.3030,-1.3449,1.4232,0.7780,2.107
4.3060,-1.1863,0.9932,0.8112,1.747
4.3110,-1.0870,0.5589,0.7754,1.447
4.3150,-0.9588,0.1008,0.7688,1.233
4.3400,-0.6399,-0.5056,0.8489,1.177
4.3410,-0.5256,-0.9091,0.9701,1.430
4.3410,-0.5708,-1.1557,1.0369,1.654
4.3410,-0.6635,-1.4059,1.0300,1.865
4.3420,-0.8754,-1.5116,0.9942,2.010
4.3450,-1.0733,-1.6474,1.0530,2.230
4.3500,-1.1642,-1.6773,1.1695,2.353
4.3550,-1.2371,-1.5559,1.3258,2.389
4.3590,-1.4640,-1.3526,1.5116,2.502
4.3690,-1.7174,-1.1174,1.6546,2.634
4.3700,-1.9109,-0.7495,1.8472,2.761
4.3750,-2.0917,-0.3302,2.0486,2.946
4.3780,-2.2596,0.1694,2.2560,3.198
4.3830,-2.3543,0.6873,2.5101,3.509
4.3880,-2.5165,1.2332,2.8560,4.001
4.3930,-2.7193,1.6974,3.1406,4.488
4.3980,-2.8349,2.0278,3.3860,4.859
4.4030,-2.9325,2.2393,3.4298,5.038
4.4110,-3.1234,2.3896,3.2011,5.071
4.4120,-3.2784,2.4598,2.9463,5.048
4.4150,-3.3056,2.4409,2.8976,5.028
4.4580,-3.1908,2.4002,2.9016,4.936
4.4580,-3.0774,2.2803,2.9150,4.813
4.4590,-2.8339,2.0956,2.8953,4.561
4.4590,-2.6452,1.9559,2.9420,4.413
4.4590,-2.4445,1.8251,2.9048,4.212
4.4600,-2.2779,1.6072,2.7303,3.902
4.4600,-2.0408,1.3617,2.5992,3.574
4.4610,-1.8988,1.0763,2.4020,3.246
4.4610,-1.8332,0.7986,2.2739,3.028
4.4630,-1.7960,0.5761,2.1466,2.858
4.4690,-1.7922,0.3896,2.0955,2.785
4.4750,-1.7305,0.2270,2.0671,2.705
4.4780,-1.7066,0.0882,2.0225,2.648
4.4830,-1.6222,-0.0651,1.9555,2.542
4.4900,-1.5180,-0.2090,1.8694,2.417
4.4920,-1.3896,-0.3582,1.7969,2.300
4.4960,-1.3303,-0.4960,1.7415,2.247
4.5040,-1.2657,-0.5914,1.6236,2.142
4.5100,-1.1959,-0.7019,1.4903,2.036
4.5120,-1.1136,-0.8084,1.3079,1.898
4.5150,-0.9666,-0.8895,1.1839,1.768
4.5470,-0.8866,-0.9908,1.0266,1.680
4.5470,-0.8162,-1.0861,0.8829,1.620
4.5470,-0.7439,-1.1755,0.6805,1.549
4.5480,-0.6911,-1.2613,0.5289,1.532
4.5480,-0.6747,-1.3819,0.3944,1.588
4.5480,-0.6755,-1.4462,0.2618,1.618
4.5480,-0.7580,-1.5046,0.1923,1.696
4.5550,-0.8502,-1.5688,0.1419,1.790
4.5570,-0.8541,-1.6314,0.1143,1.845
4.5620,-0.8823,-1.7713,-0.0230,1.979
4.5670,-0.9302,-1.9503,-0.1295,2.165
4.5720,-0.9334,-2.2737,-0.3325,2.480
4.5760,-0.8709,-2.6600,-0.5880,2.860
4.5810,-0.7648,-3.1120,-0.7850,3.299
4.5860,-0.7498,-3.5296,-1.0637,3.762
4.5910,-0.8385,-3.9303,-1.4921,4.287
4.5950,-1.0595,-4.3186,-2.3153,5.013
4.6000,-1.4005,-4.8121,-4.7969,6.937
4.6120,-1.9577,-5.7308,-15.2064,16.368
4.6140,-2.4663,-6.0322,-20.8606,21.855
4.6170,-3.1473,-5.5185,-19.9779,20.964
4.6820,-3.7460,-5.0595,-18.3802,19.428
4.6830,-4.2870,-4.8652,-18.0950,19.222
4.6840,-4.7715,-4.9848,-21.3131,22.402
4.6840,-3.6373,-5.7711,-25.9323,26.815
4.6850,-1.4838,-6.8838,-20.2132,21.405
4.6850,-0.5515,-7.2151,-12.0373,14.045
4.6860,-0.5216,-6.8003,-6.0294,9.103
4.6860,-1.0857,-6.2620,-2.4134,6.798
4.6870,-2.0987,-5.6252,-0.7352,6.049
4.6870,-2.7943,-4.7510,-0.0964,5.513
4.6870,-3.1168,-3.8297,0.0664,4.938
4.6880,-3.3429,-2.9593,-0.2955,4.474
4.6880,-3.3141,-2.2533,-1.0722,4.148
4.6880,-2.8636,-1.8341,-2.1453,4.021
4.6890,-2.2188,-1.7004,-2.8969,4.026
4.6900,-1.5079,-1.8824,-3.1537,3.970
4.6940,-1.0733,-2.2820,-2.9510,3.882
4.7000,-1.0055,-2.5332,-3.0842,4.116
4.7040,-1.0921,-2.5647,-3.4575,4.441
4.7100,-1.2279,-2.5401,-4.1054,4.981
4.7140,-1.2257,-2.7131,-5.1800,5.975
4.7210,-0.6744,-2.9693,-6.6195,7.286
4.7240,0.3757,-3.2407,-8.2962,8.915
4.7290,1.1513,-3.3207,-8.8655,9.537
4.7340,0.9316,-3.1906,-7.5625,8.261
4.7770,-0.0556,-3.0637,-5.1922,6.029
4.7780,-0.8946,-3.0439,-2.9689,4.345
4.7780,-1.3287,-3.1629,-1.1190,3.609
4.7790,-1.2894,-3.4093,0.2478,3.653
4.7790,-1.0110,-3.6844,0.9193,3.930
4.7800,-0.4393,-3.9670,1.1469,4.153
4.7810,0.2904,-4.3014,1.3981,4.532
4.7810,0.9993,-4.6288,1.6675,5.020
4.7820,1.7202,-4.9016,1.9205,5.538
4.7820,2.4054,-5.2069,2.1585,6.128
4.7850,3.1521,-5.5350,2.4023,6.808
4.7910,3.7912,-5.8744,2.7758,7.522
4.7970,4.4726,-6.2395,3.1876,8.312
4.8010,5.1106,-6.4300,3.7473,9.028
4.8090,5.7958,-6.5747,4.4198,9.816
4.8100,6.4081,-6.6785,5.0675,10.552
4.8140,6.8043,-6.5474,5.8441,11.105
4.8440,7.2555,-6.2146,7.2820,12.012
4.8450,7.4945,-5.7036,8.4202,12.633
4.8450,7.6160,-5.0593,9.2216,12.986
4.8460,7.6328,-4.3099,9.4412,12.883
4.8460,7.4526,-3.5005,9.1160,12.284
4.8460,7.1983,-2.4226,8.5950,11.470
4.8490,6.5932,-1.1431,7.3390,9.932
4.8530,5.9153,0.0441,5.8498,8.319
4.8580,5.1547,1.1752,4.6973,7.072
4.8620,4.5860,2.0518,3.7958,6.297
4.8660,4.0099,2.7503,3.1816,5.811
4.8720,3.2991,3.3259,2.7464,5.430
4.8760,2.6446,3.7975,2.2074,5.127
4.8810,1.9117,4.1435,1.5285,4.812
4.8860,1.3123,4.3872,0.4414,4.600
4.8920,0.3476,4.3226,-2.9127,5.224
4.8970,-1.1394,3.9054,-5.9786,7.232
4.9000,-1.9625,3.4455,-5.2151,6.551
4.9050,-1.7214,3.1605,-2.3747,4.312
4.9110,-1.2649,3.1865,-0.0212,3.428
4.9170,-1.0375,3.2224,1.7510,3.811
4.9300,-1.0199,3.3872,3.0626,4.679
4.9330,-1.2009,3.5096,4.0963,5.526
4.9360,-1.1709,3.5876,5.0270,6.286
4.9360,-1.3554,3.7165,5.6299,6.881
4.9770,-1.5645,3.8354,6.0206,7.308
4.9780,-1.9726,3.9464,6.3665,7.746
4.9780,-2.3340,4.0276,6.4883,7.985
4.9780,-2.8701,4.0200,6.4740,8.143
4.9790,-3.3460,3.9151,6.3967,8.212
4.9790,-3.8751,3.6413,6.3204,8.260
4.9790,-4.0963,3.3571,6.2375,8.183
4.9800,-4.1172,3.0405,6.1764,8.021
4.9800,-4.1282,2.6556,6.1771,7.890
4.9800,-3.8909,2.2227,6.2640,7.702
4.9850,-3.6267,1.7847,6.4461,7.609
4.9890,-3.2124,1.4058,6.7302,7.589
4.9940,-2.8064,1.1435,7.1037,7.723
4.9990,-2.4524,0.9756,7.5052,7.956
5.0060,-2.0256,0.8994,7.9063,8.211
5.0080,-1.5762,1.0123,8.2296,8.440
5.0130,-1.1732,1.4306,8.4381,8.638
5.0170,-1.1304,2.1078,8.4127,8.746
5.0410,-1.3030,2.8593,8.1102,8.698
5.0420,-1.5717,3.4962,7.6837,8.587
5.0420,-1.7756,4.0234,7.2635,8.491
5.0420,-1.8728,4.3908,6.8701,8.366
5.0420,-1.8942,4.5677,6.4417,8.121
5.0460,-1.8083,4.5902,6.0624,7.816
5.0520,-1.6273,4.4201,5.6585,7.362
5.0580,-1.3921,4.1196,5.2109,6.787
5.0630,-1.1584,3.6837,4.7314,6.107
5.0660,-0.9623,3.0935,4.0855,5.214
5.0710,-0.7259,2.4084,3.2209,4.087
5.0760,-0.4832,1.6281,1.8913,2.542
5.0810,-0.1875,0.7499,-0.1564,0.789
5.0840,0.1779,-0.2183,-3.0235,3.037
5.0890,0.6989,-1.3541,-6.8188,6.987
5.0950,1.3300,-2.4499,-11.3039,11.642
5.0990,2.0648,-3.5969,-15.2618,15.815
5.1110,2.2921,-4.4129,-17.7242,18.409
5.1130,1.8678,-4.7244,-18.3998,19.088
5.1140,1.1217,-4.4061,-17.4806,18.062
5.1170,0.2416,-3.6537,-15.2261,15.660
5.1570,-0.4985,-2.8943,-12.3395,12.684
5.1570,-0.9753,-2.3377,-9.7231,10.048
5.1580,-0.9199,-2.2136,-7.5864,7.956
5.1580,-0.5960,-2.0429,-5.9474,6.317
5.1580,0.1100,-1.9193,-4.7528,5.127
5.1590,0.9712,-1.8484,-3.5814,4.146
5.1590,1.7264,-1.6255,-2.5209,3.461
5.1600,2.5352,-1.4449,-1.2738,3.184
5.1600,3.0199,-1.0965,-0.0127,3.213
5.1650,3.0889,-0.5615,1.1264,3.335
5.1710,2.8028,0.1363,1.9522,3.418
5.1770,2.1632,1.0090,2.2487,3.279
5.1790,1.4514,1.8608,2.2730,3.277
5.1840,0.7140,2.7158,2.0843,3.497
5.1900,-0.0597,3.4692,1.7583,3.890
5.1950,-0.9521,4.2287,1.3467,4.539
5.1980,-2.0100,5.0018,0.8412,5.456
5.2100,-2.9286,5.5358,0.3297,6.271
5.2110,-3.2766,5.5322,0.1659,6.432
5.2170,-2.7318,4.8748,0.6437,5.625
5.2180,-1.6488,3.8188,1.7191,4.501
5.2520,-0.1729,2.4358,3.3065,4.110
5.2530,1.4430,0.8808,5.0889,5.362
5.2530,3.0471,-0.7732,6.4807,7.203
5.2540,4.5305,-2.3806,7.1119,8.762
5.2540,5.7756,-3.8160,7.3618,10.105
5.2540,6.8767,-5.0272,7.6035,11.418
5.2550,8.0068,-6.1748,7.6263,12.665
5.2550,8.8344,-7.0079,7.6065,13.602
5.2590,9.6190,-7.7605,7.4842,14.449
5.2640,10.1338,-8.1673,7.2097,14.879
5.2700,10.1871,-8.0007,6.6510,14.561
5.2750,9.4866,-7.1414,5.8418,13.233
5.2780,8.4268,-5.7922,4.7577,11.278
5.2830,7.4361,-4.5199,3.6557,9.439
5.2880,6.4538,-3.3665,2.8698,7.824
5.2920,5.2377,-2.0486,2.3942,6.113
5.2970,4.0417,-0.8115,2.0998,4.626
5.3070,3.0944,0.2276,1.8858,3.631
5.3090,2.3953,1.0092,1.6931,3.102
5.3120,1.8295,1.5359,1.4879,2.814
5.3160,1.2897,1.8512,1.2395,2.574
5.3620,0.7384,2.0273,1.0208,2.387
5.3630,0.1935,2.1580,0.9036,2.348
5.3630,-0.3149,2.2797,0.8030,2.437
5.3630,-0.6565,2.3691,0.6905,2.554
5.3640,-0.9718,2.3858,0.6744,2.663
5.3640,-1.3008,2.3134,0.6858,2.741
5.3650,-1.5832,2.1261,0.7390,2.752
5.3650,-1.6704,1.7788,0.8652,2.589
5.3660,-1.6705,1.3217,0.9304,2.324
5.3660,-1.7490,0.8170,0.9372,2.146
5.3690,-1.6007,0.0516,0.7494,1.768
5.3750,-1.5165,-0.6115,1.1081,1.975
5.3810,-1.7789,-0.8812,1.1283,2.283
5.3890,-2.0384,-0.8440,1.0610,2.448
5.3920,-2.0816,-0.8416,1.1812,2.537
5.3950,-2.1762,-0.9026,1.3879,2.734
5.3980,-2.1780,-1.0287,1.6688,2.930
5.4020,-2.1851,-1.0934,1.5288,2.882
5.4100,-2.3985,-1.0153,1.6368,3.076
5.4110,-2.2891,-0.7990,2.1995,3.274
5.4160,-2.3645,-0.5189,2.1235,3.220
5.4250,-2.4212,-0.2870,2.0749,3.202
5.4270,-2.4020,0.0090,2.1772,3.242
5.4860,-2.5489,0.4359,2.1595,3.369
5.4870,-2.7341,0.8268,2.1764,3.591
5.4870,-2.8356,1.1652,2.3396,3.856
5.4870,-2.9007,1.4444,2.4645,4.071
5.4870,-2.9773,1.7266,2.5319,4.273
5.4880,-3.0121,1.9286,2.5442,4.389
5.4880,-3.0479,2.0650,2.6039,4.509
5.4880,-3.0866,2.1455,2.6774,4.615
5.4890,-3.0678,2.1923,2.7456,4.664
5.4890,-3.0631,2.1410,2.8724,4.713
5.4890,-2.9619,2.0636,2.9623,4.670
5.4890,-2.7904,1.9197,3.0982,4.590
5.4900,-2.5297,1.7761,3.3280,4.542
5.4910,-2.1992,1.4822,3.5909,4.464
5.4960,-1.8860,1.1571,3.7932,4.391
5.5010,-1.7028,0.8838,3.8234,4.278
5.5070,-1.6117,0.6334,3.5734,3.971
5.5110,-1.6106,0.5007,3.2885,3.696
5.5160,-1.6085,0.4138,3.0427,3.466
5.5230,-1.5576,0.3127,2.7902,3.211
5.5260,-1.4704,0.2087,2.4830,2.893
5.5310,-1.3304,0.0896,2.2088,2.580
5.5350,-1.1814,-0.0429,2.0036,2.326
5.5620,-1.0617,-0.1530,1.8574,2.145
5.5620,-0.9811,-0.3033,1.6724,1.962
5.5630,-0.9179,-0.4385,1.4964,1.809
5.5630,-0.8434,-0.5589,1.3223,1.665
5.5630,-0.7674,-0.6979,1.1594,1.556
5.5640,-0.7113,-0.7838,0.9569,1.427
5.5680,-0.6179,-0.9001,0.7767,1.340
5.5740,-0.4609,-1.0898,0.6522,1.351
5.5780,-0.3176,-1.3075,0.4759,1.427
5.5840,-0.2839,-1.4313,0.2332,1.478
5.5880,-0.3311,-1.5233,-0.0431,1.559
5.5920,-0.4684,-1.5831,-0.2942,1.677
5.5970,-0.6429,-1.6537,-0.5449,1.856
5.6010,-0.7345,-1.7080,-0.7583,2.008
5.6070,-0.8580,-1.7915,-0.9637,2.208
5.6120,-0.8844,-1.9281,-1.1426,2.409
5.6160,-0.9356,-2.0385,-1.2876,2.586
5.6460,-0.9572,-2.2284,-1.4836,2.843
5.6470,-1.0473,-2.2969,-1.7115,3.050
5.6470,-1.1437,-2.3685,-2.0866,3.357
5.6480,-1.2413,-2.4910,-2.7414,3.907
5.6480,-1.3660,-2.6746,-4.7534,5.623
5.6490,-1.6586,-2.8062,-11.5741,12.024
5.6490,-1.9230,-2.9461,-16.6264,16.995
5.6540,-2.3113,-2.8197,-15.8667,16.280
5.6600,-2.5827,-2.8158,-12.9450,13.497
5.6650,-2.8781,-2.8317,-10.7281,11.463
5.6680,-2.9680,-3.1326,-9.6553,10.576
5.6730,-2.9241,-3.6836,-10.2129,11.244
5.6800,-3.0906,-4.3384,-13.6783,14.679
5.6820,-2.5922,-5.1562,-17.8749,18.783
5.6880,-1.4967,-6.0057,-15.7611,16.933
5.6920,-0.6439,-6.2441,-10.2282,12.001
5.6970,-0.4696,-5.6133,-5.9002,8.157
5.7010,-0.7709,-4.7717,-3.2091,5.802
5.7070,-1.2373,-4.1526,-1.9055,4.733
5.7100,-1.9469,-3.5235,-1.3305,4.240
5.7150,-2.4987,-2.7564,-1.4784,4.003
5.7190,-2.7807,-2.0423,-2.3726,4.187
5.7260,-2.7842,-1.6952,-3.2085,4.574
5.7290,-2.6295,-1.7441,-3.7969,4.937
5.7340,-2.1860,-2.2591,-3.5813,4.765
5.7900,-1.6149,-3.0789,-2.8566,4.500
5.7900,-1.3077,-3.6658,-2.2217,4.482
5.7910,-1.3694,-3.9193,-2.1856,4.692
5.7910,-1.6419,-4.0244,-2.6223,5.076
5.7920,-1.8759,-4.1062,-3.2230,5.547
5.7920,-2.0084,-4.2346,-3.9255,6.113
5.7940,-1.8431,-4.6377,-4.7688,6.903
5.7940,-1.5813,-4.9655,-5.8808,7.858
5.7950,-1.0492,-5.2505,-6.8183,8.669
5.7950,-0.7405,-5.5857,-7.1322,9.089
5.7960,-0.7844,-5.5478,-6.4990,8.581
5.7960,-1.1984,-5.1138,-5.1489,7.355
5.7970,-1.3970,-4.6798,-3.7549,6.160
5.8010,-1.4960,-4.2967,-2.4417,5.163
5.8050,-1.5112,-3.8297,-1.2057,4.290
5.8110,-1.3441,-3.4635,-0.2228,3.722
5.8150,-0.9928,-3.2590,0.5546,3.452
5.8190,-0.3361,-3.1617,1.1541,3.382
5.8240,0.3379,-3.1911,1.5515,3.564
5.8290,1.0781,-3.3075,1.8336,3.932
5.8340,1.7832,-3.5132,1.9971,4.417
5.8590,2.5356,-3.8088,2.1677,5.063
5.8600,3.2724,-4.1080,2.3409,5.750
5.8600,3.9595,-4.3750,2.4693,6.397
5.8610,4.6124,-4.6840,2.6028,7.070
5.8610,5.0635,-4.9227,2.8985,7.634
5.8630,5.7254,-5.2416,3.4857,8.509
5.8690,6.2605,-5.3513,4.2945,9.288
5.8730,6.6400,-5.1874,5.0769,9.837
5.8770,6.9124,-4.8429,5.7745,10.226
5.8830,7.1288,-4.3989,6.6155,10.674
5.8860,7.2585,-3.7881,7.4306,11.057
5.8920,7.3141,-2.9912,8.1041,11.319
5.8960,7.1387,-2.1152,8.1589,11.046
5.9000,6.6572,-1.1456,7.2675,9.922
5.9070,6.0713,-0.2968,6.0960,8.609
5.9100,5.4627,0.5510,5.2340,7.585
5.9150,4.9319,1.3621,4.3727,6.731
5.9190,4.2682,2.0004,3.5600,5.907
5.9370,3.4784,2.5301,1.5017,4.556
5.9380,2.5863,2.6166,-1.9279,4.154
5.9380,1.5096,2.6083,-4.1929,5.164
5.9390,0.5284,2.4326,-4.9708,5.559
5.9430,0.3286,2.1872,-4.0816,4.642
5.9480,0.3460,2.1220,-2.1967,3.074
5.9520,0.1472,2.1652,-0.0130,2.170
5.9580,0.0087,2.1540,1.9406,2.899
5.9610,-0.2488,2.1802,3.1629,3.850
5.9660,-0.6121,2.2649,3.6539,4.342
5.9720,-0.8458,2.5371,4.1446,4.933
5.9760,-1.2883,2.9590,4.4305,5.481
5.9800,-1.6070,3.3295,4.5479,5.861
5.9850,-1.8353,3.5874,4.9913,6.415
5.9920,-2.0621,3.7257,5.3288,6.821
5.9960,-2.4435,3.7924,5.6362,7.219
6.0000,-3.0098,3.8275,5.3197,7.212
6.0150,-3.5460,3.6877,5.0654,7.199
6.0170,-4.1929,3.4803,4.9055,7.332
6.0190,-4.6992,3.1728,4.9776,7.545
6.0200,-4.8800,2.8413,5.1595,7.649
6.0750,-4.7814,2.4312,5.4320,7.634
6.0760,-4.6189,2.0909,5.7880,7.695
6.0770,-4.3949,1.8236,6.2194,7.831
6.0770,-3.9523,1.5022,6.7147,7.935
6.0780,-3.4661,1.2296,7.1063,8.002
6.0780,-2.8603,0.9646,7.4145,8.005
6.0790,-2.1329,0.8622,7.5658,7.908
6.0790,-1.4065,0.7969,7.7313,7.899
6.0800,-0.7584,0.8038,7.8116,7.889
6.0800,-0.2864,1.0137,7.7956,7.866
6.0810,0.1051,1.2491,7.7487,7.849
6.0810,0.3140,1.6197,7.6118,7.789
6.0810,0.3576,2.0607,7.3976,7.688
6.0850,0.1864,2.6534,7.0515,7.537
6.0920,-0.0716,3.2401,6.6654,7.411
6.0950,-0.3893,3.8378,6.2968,7.384
6.0990,-0.6936,4.3297,6.0565,7.477
6.1040,-0.8594,4.7022,5.8418,7.548
6.1100,-0.9313,4.8862,5.6986,7.564
6.1140,-0.9043,4.8726,5.5006,7.404
6.1190,-0.6972,4.6855,5.2215,7.050
6.1450,-0.4520,4.3533,4.8591,6.540
6.1460,-0.1359,3.9166,4.3794,5.877
6.1460,0.0942,3.3726,3.6888,4.999
6.1470,0.3522,2.7833,2.6765,3.877
6.1470,0.5787,2.1411,1.3277,2.585
6.1480,0.7770,1.4097,-0.5237,1.693
6.1520,0.9425,0.6296,-2.8005,3.021
6.1570,1.1512,-0.2385,-5.5343,5.658
6.1610,1.3837,-1.2097,-9.0351,9.220
6.1690,1.5773,-2.1517,-12.7403,13.017
6.1720,1.8025,-2.9536,-15.6761,16.053
6.1760,1.9585,-3.6203,-16.7243,17.223
6.1810,2.0120,-3.9086,-15.7288,16.332
6.1850,1.7596,-3.8273,-14.4766,15.077
6.1910,1.4863,-3.5821,-12.7011,13.280
6.1960,1.0144,-3.2448,-10.8186,11.340
6.1990,0.6516,-2.9491,-8.9467,9.443
6.2040,0.8004,-2.7939,-7.0844,7.657
6.2110,1.0641,-2.6163,-5.7220,6.381
6.2630,1.5708,-2.5150,-4.5589,5.438
6.2640,2.1712,-2.4259,-3.3307,4.658
6.2640,2.8894,-2.3089,-2.0421,4.225
6.2650,3.6285,-2.0426,-0.9830,4.278
6.2650,4.0603,-1.5682,-0.1737,4.356
6.2660,3.9801,-0.9197,0.5305,4.119
6.2660,3.6284,-0.0995,0.9805,3.760
6.2660,3.0568,0.8635,1.1398,3.375
6.2670,2.3147,1.9125,1.0047,3.166
6.2670,1.5584,2.8729,0.5432,3.313
6.2680,0.8031,3.6448,-0.2081,3.738
6.2680,-0.0203,4.2574,-1.0701,4.390
6.2710,-0.7495,4.2808,-1.5774,4.623
6.2790,-0.8783,3.5749,-1.3761,3.930
6.2800,-0.0590,2.3408,-0.4744,2.389
6.2860,1.2186,0.9606,1.3450,2.053
6.2900,2.3695,-0.3346,3.9416,4.611
6.2950,3.4058,-1.5833,6.2865,7.323
6.2990,4.4465,-2.6992,7.7803,9.359
6.3030,5.3498,-3.6737,8.6294,10.797
6.3080,6.0677,-4.5354,8.8570,11.655
6.3130,6.6754,-5.2157,8.7176,12.156
6.3170,7.1690,-5.6903,8.4347,12.447
6.3310,7.2649,-5.5891,7.8636,12.077
6.3340,6.6255,-4.7376,7.0741,10.788
6.3370,5.4262,-3.2501,5.9873,8.709
6.3390,4.3021,-1.7671,4.9636,6.802
6.3960,3.6226,-0.7569,4.1727,5.577
6.3980,3.1200,-0.0846,3.6414,4.796
6.3980,2.5850,0.4520,3.1768,4.121
6.3990,2.0727,0.9786,2.7112,3.550
6.3990,1.5567,1.4585,2.3164,3.149
6.4010,1.1394,1.8390,1.9562,2.917
6.4010,0.7723,2.1126,1.7173,2.830
6.4020,0.4320,2.3133,1.5447,2.815
6.4020,0.1194,2.3577,1.3891,2.739
6.4030,-0.1094,2.3064,1.3082,2.654
6.4030,-0.2868,2.1502,1.3024,2.530
6.4040,-0.3997,1.9255,1.2985,2.357
6.4040,-0.4691,1.5993,1.1891,2.047
6.4050,-0.5324,1.2533,1.1204,1.763
6.4070,-0.6371,0.9497,0.9872,1.511
6.4120,-0.9334,0.6649,0.9090,1.463
6.4180,-1.0668,0.0670,0.5198,1.189
6.4210,-0.8254,-0.7294,0.7138,1.313
6.4260,-0.7433,-1.1959,1.0933,1.783
6.4310,-0.9066,-1.1181,1.2803,1.926
6.4360,-0.9483,-1.0768,1.6168,2.162
6.4600,-0.8874,-1.2488,2.1911,2.674
6.4600,-0.8679,-1.4260,2.4650,2.977
6.4610,-1.1457,-1.4913,2.1157,2.831
6.4610,-1.4819,-1.4068,2.1994,3.002
6.4610,-1.5678,-1.2606,2.7788,3.431
6.4640,-1.9009,-1.0646,2.4574,3.284
6.4700,-2.1552,-0.8688,2.2698,3.248
6.4750,-2.2403,-0.6680,2.2297,3.231
6.4790,-2.2853,-0.4099,2.1236,3.147
6.4840,-2.2453,-0.1446,2.0875,3.069
6.4880,-2.3523,0.2281,2.1664,3.206
6.4930,-2.5054,0.5743,2.2551,3.419
6.5010,-2.6616,0.8917,2.3633,3.669
6.5020,-2.8728,1.2140,2.4716,3.979
6.5080,-2.9948,1.4937,2.5854,4.229
6.5120,-3.0870,1.7024,2.6994,4.440
6.5170,-3.1198,1.8048,2.7405,4.528
6.5220,-3.1289,1.8726,2.7012,4.538
6.5530,-3.0993,1.8561,2.7212,4.523
6.5540,-3.0452,1.7769,2.7523,4.473
6.5540,-2.9976,1.6542,2.8063,4.427
6.5550,-2.9251,1.5169,2.8837,4.379
6.5550,-2.7297,1.3985,2.9669,4.267
6.5560,-2.4333,1.2102,3.1517,4.162
6.5570,-2.1297,0.9544,3.3341,4.070
6.5600,-1.9292,0.6809,3.5197,4.071
6.5640,-1.7796,0.4229,3.6000,4.038
6.5690,-1.7407,0.2185,3.4767,3.894
6.5740,-1.7359,0.0792,3.3084,3.737
6.5800,-1.6433,-0.0548,3.0150,3.434
6.5840,-1.5399,-0.1385,2.7322,3.139
6.5880,-1.4212,-0.2561,2.4517,2.845
6.5950,-1.2761,-0.4010,2.2400,2.609
6.5980,-1.1936,-0.4755,2.0350,2.407
6.6020,-1.1283,-0.5253,1.7937,2.183
6.6160,-1.0662,-0.5269,1.5947,1.989
6.6180,-1.0407,-0.5734,1.4059,1.841
6.6200,-1.0038,-0.6099,1.2196,1.693
6.6220,-0.9294,-0.6675,1.0023,1.521
6.6630,-0.8511,-0.7846,0.8541,1.439
6.6640,-0.7145,-0.9610,0.6979,1.386
6.6640,-0.4840,-1.1658,0.4731,1.348
6.6640,-0.4136,-1.3227,0.1840,1.398
6.6650,-0.4722,-1.3219,-0.0868,1.406
6.6650,-0.6187,-1.3233,-0.3092,1.493
6.6660,-0.6830,-1.3456,-0.5505,1.606
6.6660,-0.7512,-1.4608,-0.7465,1.804
6.6670,-0.8112,-1.6083,-0.9747,2.048
6.6680,-0.8629,-1.8003,-1.1861,2.322
6.6740,-0.8538,-2.0291,-1.4293,2.625
6.6790,-0.8506,-2.2613,-1.8035,3.015
6.6830,-0.8175,-2.3967,-2.4177,3.501
6.6880,-0.7467,-2.5859,-3.0432,4.063
6.6920,-0.6763,-2.7149,-4.2021,5.048
6.6970,-0.6500,-2.7361,-6.0002,6.627
6.7010,-0.6458,-2.5815,-9.0198,9.404
6.7120,-0.5014,-2.5076,-11.6541,11.931
6.7130,-0.4092,-2.4983,-12.7472,12.996
6.7160,-0.3604,-2.6465,-12.9810,13.253
6.7200,-0.4537,-2.8308,-13.4347,13.737
6.7720,-0.5678,-2.9494,-14.9169,15.216
6.7730,-0.5702,-3.0933,-17.8578,18.133
6.7740,-0.2647,-3.5734,-18.9013,19.238
6.7740,-0.0462,-4.2117,-14.5789,15.175
6.7750,0.0036,-4.8958,-9.0046,10.249
6.7750,0.0672,-5.4055,-4.8891,7.289
6.7770,-0.0183,-5.5675,-2.4032,6.064
6.7770,-0.5083,-5.4198,-1.1877,5.572
6.7780,-1.1868,-5.0607,-0.6728,5.241
6.7780,-1.7467,-4.7010,-0.5008,5.040
6.7790,-2.2086,-4.2868,-0.8825,4.902
6.7790,-2.6312,-3.8643,-1.5590,4.928
6.7830,-2.9856,-3.4031,-2.6098,5.226
6.7880,-3.2038,-3.0332,-3.6571,5.731
6.7930,-3.3365,-2.8697,-3.9526,5.915
6.7980,-3.2263,-3.0564,-3.2406,5.500
6.8010,-3.0439,-3.2058,-2.2925,4.980
6.8090,-2.9553,-3.0710,-1.7774,4.618
6.8130,-2.9274,-2.7017,-1.6015,4.293
6.8170,-2.6170,-2.3935,-1.7588,3.959
6.8210,-2.2622,-2.1527,-2.4027,3.940
6.8490,-1.9847,-1.9761,-3.6384,4.592
6.8500,-1.5115,-1.9230,-5.5981,6.109
6.8510,-0.7919,-2.0116,-8.2013,8.481
6.8510,0.1519,-2.2674,-11.0478,11.279
6.8520,1.0662,-2.5364,-13.2746,13.557
6.8520,1.6013,-2.7522,-13.8172,14.179
6.8550,1.6137,-2.8741,-12.3067,12.740
6.8600,1.1517,-2.9888,-9.6494,10.167
6.8630,0.0722,-3.0640,-6.7124,7.379
6.8690,-1.0394,-3.1540,-3.9386,5.152
6.8750,-1.9212,-3.2806,-1.6617,4.149
6.8770,-2.5870,-3.5454,-0.1191,4.391
6.8810,-2.8723,-3.8622,0.7962,4.879
6.8860,-2.7861,-4.2341,1.3491,5.245
6.8910,-2.4791,-4.6257,1.6061,5.488
6.8950,-1.9784,-5.0540,1.7173,5.693
6.9000,-1.4719,-5.3938,1.8264,5.882
6.9050,-0.8864,-5.5425,1.8869,5.922
6.9110,-0.2068,-5.5823,2.0330,5.945
6.9160,0.4752,-5.5708,2.2217,6.016
6.9200,1.1826,-5.6540,2.4772,6.285
6.9720,1.9089,-5.7746,2.7265,6.665
6.9730,2.6917,-5.9825,2.9288,7.184
6.9730,3.4316,-6.2371,3.1722,7.794
6.9740,4.1376,-6.4355,3.5904,8.451
6.9750,4.7104,-6.5753,3.9636,9.007
6.9750,5.3797,-6.7661,4.3535,9.679
6.9760,6.1258,-6.8956,4.9094,10.449
6.9760,6.7973,-6.8562,5.7109,11.217
6.9770,7.3489,-6.5284,6.8574,11.985
6.9770,7.6494,-5.9691,8.2982,12.767
6.9780,7.8746,-5.2976,9.4819,13.416
6.9780,7.8891,-4.3790,9.7975,13.319
6.9820,7.3187,-3.1273,9.2540,12.206
6.9870,6.6313,-1.6354,8.3646,10.799
6.9910,5.7348,-0.2589,7.0163,9.065
6.9960,4.7455,0.9502,5.4938,7.321
7.0000,3.8651,1.8827,4.6743,6.351
7.0050,3.3141,2.6318,4.2315,5.985
7.0120,2.5729,3.4346,3.6412,5.628
7.0150,2.0400,3.9369,1.4458,4.664
7.0200,1.0751,3.8560,-4.2144,5.813
7.0310,0.3022,3.4996,-7.4639,8.249
7.0330,-0.3974,3.0238,-7.7997,8.375
7.0340,-0.4444,2.5037,-5.7094,6.250
7.0380,-0.3415,2.1990,-2.5646,3.395
7.0800,-0.2146,2.3437,0.1149,2.356
7.0810,-0.1611,2.4646,2.3193,3.388
7.0810,-0.1797,2.6595,3.8097,4.650
7.0820,-0.2660,2.8737,5.1231,5.880
7.0820,-0.4186,3.2388,6.1285,6.944
7.0820,-0.5761,3.5404,6.5676,7.483
7.0820,-0.8698,3.8452,6.7923,7.853
7.0830,-1.2925,4.0768,6.7424,7.984
7.0830,-1.7505,4.2937,6.5181,7.999
7.0860,-2.2229,4.5461,6.3218,8.098
7.0920,-2.7688,4.6061,6.1811,8.191
7.0970,-3.2063,4.6472,6.1155,8.323
7.1020,-3.5188,4.4408,6.0158,8.264
7.1050,-3.7375,4.2088,5.8526,8.120
7.1110,-3.9829,3.9301,5.7448,8.019
7.1150,-4.1383,3.5133,5.8512,7.982
7.1200,-4.0471,3.0381,6.1009,7.927
7.1300,-3.6915,2.5678,6.3864,7.811
7.1310,-3.3909,2.1071,6.7095,7.807
7.1330,-3.0025,1.7107,7.0988,7.895
7.1380,-2.4928,1.3908,7.5473,8.069
7.1800,-1.9075,1.1847,7.9340,8.246
7.1810,-1.2866,1.1660,8.2796,8.460
7.1820,-0.8785,1.5172,8.5072,8.686
7.1820,-0.8870,2.1754,8.5668,8.883
7.1820,-1.1400,2.8649,8.4918,9.034
7.1830,-1.4037,3.4449,8.2913,9.088
7.1830,-1.6497,3.8872,7.9910,9.038
7.1840,-1.7983,4.1874,7.5796,8.844
7.1840,-1.8392,4.2834,7.1326,8.521
7.1850,-1.7651,4.2354,6.7265,8.143
7.1900,-1.6361,4.0317,6.2534,7.618
7.1960,-1.4357,3.6789,5.7190,6.950
7.2000,-1.1622,3.1963,5.0773,6.111
7.2040,-0.8979,2.5903,4.2168,5.030
7.2100,-0.6769,1.7867,3.0056,3.561
7.2150,-0.4219,0.8586,1.2536,1.577
7.2190,-0.0767,-0.2162,-1.3850,1.404
7.2660,0.5450,-1.5179,-5.3791,5.616
7.2670,1.6664,-3.1097,-10.4959,11.073
7.2670,2.9796,-4.7088,-14.7102,15.730
7.2680,3.7586,-5.6477,-17.4922,18.762
7.2680,3.8959,-5.8894,-18.8668,20.145
7.2680,2.9359,-5.1004,-18.2491,19.175
7.2690,1.4661,-3.7052,-15.3870,15.895
7.2690,0.1357,-2.4309,-12.2048,12.445
7.2690,-0.6762,-1.5764,-9.3663,9.522
7.2700,-1.1093,-1.1367,-7.1914,7.365
7.2720,-1.3826,-0.8789,-5.6705,5.902
7.2760,-1.2982,-0.7360,-4.6887,4.920
7.2800,-1.2180,-0.5293,-4.1653,4.372
7.2850,-0.9165,-0.4269,-3.2945,3.446
7.2910,-0.5374,-0.2950,-2.4264,2.503
7.2950,0.0630,-0.2987,-1.4057,1.438
7.3000,0.8322,-0.3354,-0.1347,0.907
7.3040,1.6232,-0.3364,1.1499,2.018
7.3110,2.1752,-0.1971,2.2504,3.136
7.3150,2.2909,0.1560,2.9106,3.707
7.3200,1.9599,0.7630,3.0381,3.695
7.3240,1.3994,1.5380,2.6990,3.407
7.3330,0.7634,2.3208,2.0313,3.177
7.3340,0.1528,3.0067,1.1400,3.219
7.3380,-0.5158,3.6510,0.2901,3.699
7.3880,-1.1617,4.0290,-0.3038,4.204
7.3880,-1.6660,4.0118,-0.7669,4.411
7.3880,-1.7703,3.6133,-1.0790,4.166
7.3890,-1.4963,3.0513,-1.0231,3.549
7.3890,-0.8718,2.2916,-0.3898,2.483
7.3890,0.1201,1.1097,0.8334,1.393
7.3890,1.4035,-0.3600,2.3901,2.795
7.3900,2.8153,-1.8284,4.1010,5.300
7.3900,4.1202,-3.2358,5.7070,7.747
7.3900,5.2557,-4.5160,6.7761,9.692
7.3910,6.2216,-5.6070,7.2812,11.098
7.3940,7.2746,-6.7368,7.5166,12.442
7.3990,8.2218,-7.6832,7.6279,13.595
7.4040,9.0684,-8.2979,7.6090,14.456
7.4100,9.5704,-8.4671,7.5043,14.819
7.4130,9.4830,-7.9443,7.1172,14.272
7.4180,8.5078,-6.5334,6.3675,12.474
7.4230,6.9593,-4.7403,5.2258,9.910
7.4460,5.8418,-3.0889,3.5964,7.523
7.4470,4.6049,-1.6373,1.5908,5.140
7.4470,3.4359,-0.2410,1.0186,3.592
7.4470,2.4894,0.9365,1.0179,2.848
7.4480,1.7019,1.8977,1.0656,2.763
7.4510,1.1586,2.6352,0.9658,3.036
7.4570,0.7540,3.2021,0.7640,3.377
7.4640,0.3540,3.5627,0.3385,3.596
7.4660,0.0920,3.6356,-0.2264,3.644
7.4710,-0.0874,3.5121,-0.3646,3.532
7.4760,-0.2722,3.3022,-0.1040,3.315
7.4810,-0.7267,3.0543,0.1924,3.145
7.4850,-1.0854,2.6376,0.2567,2.864
7.4890,-1.1563,2.1410,0.2669,2.448
7.4960,-1.2431,1.6770,0.3143,2.111
7.5000,-1.3424,1.1957,0.3305,1.828
7.5030,-1.3560,0.6950,0.2149,1.539
7.5110,-1.3214,0.2612,0.1472,1.355
7.5140,-1.1694,-0.1079,0.2874,1.209
7.5190,-1.1885,-0.2736,0.4350,1.295
7.5230,-1.0696,-0.4819,0.7170,1.375
7.5520,-1.0013,-0.7973,1.1524,1.722
7.5530,-0.9857,-1.1476,1.5762,2.185
7.5530,-0.9894,-1.3417,1.8926,2.522
7.5530,-0.7953,-1.7003,2.2063,2.897
7.5540,-0.7469,-1.8940,2.7245,3.401
7.5540,-0.5986,-1.8946,3.0213,3.616
7.5560,-0.4945,-1.8914,3.0645,3.635
7.5600,-0.5311,-1.6147,3.0137,3.460
7.5640,-0.8255,-1.1747,2.5855,2.957
7.5700,-1.2053,-0.7340,2.4415,2.820
7.5750,-1.4713,-0.2323,2.4536,2.870
7.5800,-1.7665,0.2351,2.4157,3.002
7.5830,-2.0252,0.7237,2.4616,3.269
7.5880,-2.2825,1.1124,2.5978,3.633
7.5930,-2.4542,1.4563,2.8076,4.003
7.5980,-2.6402,1.7704,2.9279,4.322
7.6020,-2.8164,1.9784,2.8653,4.478
7.6200,-2.8728,2.0327,2.7821,4.486
7.6220,-2.8527,2.0076,2.6705,4.393
7.6240,-2.7640,1.8529,2.5494,4.192
7.6250,-2.7242,1.7239,2.5213,4.093
7.6750,-2.7095,1.5894,2.4876,4.007
7.6760,-2.5455,1.3827,2.4910,3.820
7.6770,-2.2996,1.1680,2.6240,3.679
7.6770,-2.0394,0.9190,2.7588,3.552
7.6770,-1.8347,0.7214,2.7924,3.418
7.6780,-1.7577,0.5655,2.7881,3.344
7.6780,-1.8392,0.5513,2.7006,3.314
7.6780,-1.9807,0.5569,2.6436,3.350
7.6790,-2.0067,0.5801,2.5132,3.268
7.6790,-1.8668,0.5777,2.3451,3.053
7.6790,-1.5664,0.3892,2.1850,2.716
7.6800,-1.2665,0.1358,2.0255,2.393
7.6840,-1.1496,-0.0015,1.8161,2.149
7.6890,-1.2275,0.0341,1.5834,2.004
7.6930,-1.2604,0.0203,1.3514,1.848
7.6980,-1.2191,-0.0165,1.0988,1.641
7.7020,-1.1633,-0.0572,0.8423,1.437
7.7070,-1.0904,-0.1401,0.6413,1.273
7.7120,-0.9718,-0.2221,0.4241,1.083
7.7160,-0.8578,-0.2699,0.2042,0.922
7.7210,-0.7389,-0.3431,0.0009,0.815
7.7440,-0.6036,-0.5160,-0.1617,0.810
7.7450,-0.4949,-0.6999,-0.3628,0.931
7.7450,-0.3891,-0.8803,-0.6288,1.150
7.7460,-0.2767,-1.0596,-0.9154,1.427
7.7460,-0.2508,-1.1681,-1.2377,1.720
7.7500,-0.2634,-1.2968,-1.4754,1.982
7.7550,-0.2116,-1.4117,-1.6395,2.174
7.7600,-0.2124,-1.5560,-1.8415,2.420
7.7640,-0.2445,-1.5864,-2.1065,2.648
7.7690,-0.3219,-1.6081,-2.4175,2.921
7.7730,-0.3343,-1.6213,-2.7532,3.213
7.7780,-0.3745,-1.6904,-3.1853,3.625
7.7830,-0.4372,-1.7223,-3.8141,4.208
7.7880,-0.4857,-1.6866,-4.8461,5.154
7.7940,-0.6172,-1.6696,-5.7430,6.013
7.7990,-0.7179,-1.6222,-7.4016,7.611
7.8030,-0.7863,-1.6571,-9.0198,9.204
7.8080,-0.8229,-1.7631,-10.0701,10.256
7.8130,-0.8872,-1.9729,-10.4264,10.648
7.8170,-1.0008,-2.1806,-10.9823,11.241
7.8220,-1.0431,-2.4582,-12.8511,13.126
7.8480,-0.9958,-2.9370,-14.7678,15.090
7.8490,-0.8428,-3.5374,-13.6894,14.164
7.8490,-0.6099,-4.1027,-10.3569,11.157
7.8500,-0.5468,-4.4929,-6.5548,7.966
7.8500,-0.6834,-4.4197,-3.5532,5.712
7.8510,-1.0202,-4.1144,-1.6968,4.566
7.8550,-1.5120,-3.8550,-0.7565,4.209
7.8620,-2.0223,-3.6480,-0.5352,4.205
7.8650,-2.4572,-3.4768,-0.7710,4.327
7.8710,-2.7656,-3.3613,-1.4798,4.598
7.8740,-2.7899,-3.3117,-2.4544,4.977
7.8790,-2.7603,-3.2070,-3.5413,5.518
7.8830,-2.7994,-3.0170,-4.1934,5.876
7.8880,-2.7419,-2.8636,-4.3011,5.850
7.8930,-2.5026,-2.9331,-3.9574,5.525
7.9020,-2.2205,-2.9880,-3.5422,5.139
7.9040,-2.0867,-2.8989,-3.4318,4.953
7.9070,-1.9736,-2.7271,-3.6298,4.951
7.9150,-1.9150,-2.5363,-4.1387,5.218
7.9190,-1.4926,-2.5622,-5.1394,5.933
7.9230,-1.0988,-2.5504,-6.8390,7.381
7.9330,-0.7001,-2.4978,-9.0163,9.382
7.9340,-0.2424,-2.5346,-10.7691,11.066
7.9350,-0.0909,-2.4256,-11.4459,11.700
7.9400,-0.2945,-2.2634,-10.9031,11.139
7.9890,-0.5283,-2.2108,-9.5839,9.850
7.9900,-0.7365,-2.4385,-7.8498,8.253
7.9910,-1.1358,-2.7225,-6.0137,6.698
7.9910,-1.6715,-3.0236,-4.1763,5.420
7.9920,-2.0931,-3.3163,-2.6037,4.707
7.9920,-2.3680,-3.5917,-1.3770,4.517
7.9930,-2.6410,-3.9299,-0.3176,4.746
7.9930,-2.7007,-4.2591,0.5078,5.069
7.9930,-2.7256,-4.5655,1.0684,5.423
7.9940,-2.4713,-4.9374,1.4368,5.705
7.9950,-1.9617,-5.3538,1.7118,5.953
7.9960,-1.4535,-5.6953,2.0077,6.211
8.0020,-0.9010,-5.8187,2.2811,6.314
8.0060,-0.2476,-5.8916,2.6352,6.459
8.0130,0.5877,-6.0430,3.0139,6.778
8.0160,1.7032,-6.3116,3.4497,7.392
8.0200,2.8504,-6.6667,3.7880,8.180
8.0250,3.8172,-6.8959,4.0174,8.847
8.0560,4.8025,-7.0212,4.4176,9.585
8.0570,5.8247,-7.1526,5.3248,10.651
8.0570,6.7126,-7.1778,6.6287,11.854
8.0570,7.5429,-6.9889,7.9267,12.984
8.0580,8.2455,-6.5954,8.8601,13.784
8.0580,8.4623,-5.8585,9.4419,13.967
8.0620,8.1085,-4.6319,9.4097,13.257
8.0640,7.4181,-3.3261,8.8628,12.027
8.0690,6.5038,-1.9998,8.3031,10.735
8.0740,5.3365,-0.6660,7.5406,9.262
8.0780,4.3157,0.6308,6.1966,7.578
8.0830,3.6299,1.8458,4.3568,5.964
8.0880,3.2034,2.8305,2.6290,5.019
8.0920,2.9853,3.4171,-1.4487,4.763
8.0970,2.3781,3.5641,-5.1703,6.715
8.1030,1.7519,3.4786,-6.7816,7.821
8.1060,1.2198,3.2166,-6.7079,7.539
8.1270,0.6523,3.0378,-5.5761,6.383
8.1300,0.1815,2.8218,-3.9675,4.872
8.1310,-0.3196,2.5355,-2.4381,3.532
8.1310,-0.6443,2.4438,-0.6652,2.613
8.1320,-0.9182,2.3436,1.2643,2.817
8.1340,-0.8834,2.2659,2.8875,3.775
8.1380,-0.7339,2.2181,4.2715,4.869
8.1770,-0.6317,2.3099,5.2288,5.751
8.1780,-0.4855,2.5075,6.0116,6.532
8.1780,-0.5483,2.7586,6.6470,7.218
8.1790,-0.9324,3.0057,7.0430,7.714
8.1790,-1.1946,3.2264,6.9641,7.768
8.1790,-1.6410,3.3636,6.6079,7.594
8.1800,-2.3565,3.4359,6.1812,7.454
8.1800,-2.7833,3.5256,5.8540,7.379
8.1810,-3.0101,3.5499,5.5887,7.273
8.1870,-3.1359,3.3357,5.4603,7.126
8.1910,-3.2958,3.0696,5.4202,7.047
8.1970,-3.3354,2.7359,5.2721,6.812
8.2010,-3.0888,2.2325,5.1360,6.396
8.2050,-2.7497,1.6715,5.0735,6.008
8.2120,-2.2035,1.2325,5.0938,5.685
8.2150,-1.6629,0.9244,5.3949,5.721
8.2200,-1.0121,0.8189,5.7791,5.924
8.2240,-0.3451,0.9797,6.2185,6.305
8.2480,0.1543,1.3583,6.5322,6.674
8.2490,0.5253,1.7341,6.8442,7.080
8.2490,0.7382,2.1762,7.0603,7.425
8.2490,0.8478,2.5962,7.2395,7.738
8.2500,0.8435,3.0490,7.3641,8.015
8.2540,0.7421,3.5539,7.4287,8.268
8.2590,0.5401,4.0825,7.3696,8.442
8.2630,0.3352,4.5966,7.1817,8.533
8.2690,0.0997,5.0582,7.0259,8.658
8.2720,-0.0887,5.3792,6.7789,8.654
8.2780,-0.1861,5.4712,6.5163,8.511
8.2820,-0.1519,5.3848,6.2597,8.258
8.2870,-0.0513,5.1101,5.9429,7.838
8.2910,0.0362,4.7400,5.5468,7.296
8.2980,0.0763,4.2628,5.0159,6.583
8.3010,0.0849,3.6729,4.3387,5.685
8.3050,0.0351,2.9565,3.3229,4.448
8.3150,-0.0475,2.1778,1.9687,2.936
8.3200,-0.0730,1.2414,0.1269,1.250
8.3240,-0.0024,0.1703,-2.3237,2.330
8.3260,0.2337,-1.0195,-5.3105,5.412
8.3780,0.6093,-2.1933,-8.6810,8.975
8.3790,0.9373,-3.3753,-12.3810,12.867
8.3800,1.1460,-4.3740,-15.7765,16.412
8.3810,0.9840,-4.9361,-17.9793,18.671
8.3810,0.4325,-5.2247,-19.0465,19.755
8.3810,-0.3786,-5.2172,-18.7828,19.498
8.3820,-1.3724,-4.8307,-17.1961,17.914
8.3820,-2.5053,-4.0751,-14.7021,15.461
8.3830,-3.4418,-3.3894,-11.8017,12.752
8.3830,-3.8026,-2.8515,-8.7155,9.927
8.3840,-3.0818,-2.7003,-5.6042,6.942
8.3840,-1.4231,-2.7960,-3.1933,4.477
8.3860,0.6787,-2.8911,-1.4505,3.305
8.3920,2.6565,-2.7675,-0.0069,3.836
8.3980,3.8609,-2.3958,1.2021,4.700
8.4010,4.2985,-1.8321,2.0932,5.120
8.4040,4.2017,-1.0770,2.5427,5.028
8.4090,3.6861,-0.0618,2.5813,4.500
8.4140,3.0063,1.0413,2.3322,3.945
8.4180,2.2565,2.1824,1.9246,3.682
8.4230,1.4876,3.2732,1.4837,3.889
8.4470,0.6834,4.2854,1.0953,4.476
8.4480,-0.1945,5.2811,0.8863,5.359
8.4480,-1.3033,6.1410,0.9259,6.346
8.4490,-2.2601,6.7005,1.1511,7.164
8.4490,-2.7792,6.8141,1.5174,7.514
8.4530,-2.9267,6.6092,2.0126,7.503
8.4580,-2.5118,5.8633,2.7278,6.937
8.4640,-1.6583,4.8230,3.7473,6.329
8.4680,-0.6055,3.6213,4.7222,5.982
8.4720,0.4671,2.2651,5.4361,5.908
8.4760,1.4661,0.8547,5.6371,5.887
8.4810,2.4175,-0.5076,5.7237,6.234
8.4880,3.2888,-1.7595,5.8782,6.962
8.4900,4.1859,-2.8867,5.8530,7.753
8.4960,5.0978,-3.9656,5.7829,8.669
8.5020,6.2188,-5.1680,5.7070,9.897
8.5050,7.5084,-6.3528,5.5658,11.301
8.5090,8.7223,-7.4746,5.4381,12.709
8.5150,9.8505,-8.3832,5.3001,13.979
8.5220,10.7000,-8.9780,5.2300,14.915
8.5260,11.1680,-9.1641,5.0412,15.301
8.5710,10.9343,-8.7627,4.5658,14.737
8.5720,9.9747,-7.6623,3.7738,13.132
8.5720,8.5242,-6.1110,2.6361,10.815
8.5730,6.7367,-4.2700,1.8063,8.178
8.5730,5.1373,-2.4054,1.3275,5.826
8.5730,3.8099,-0.7516,0.9602,4.000
8.5740,2.6857,0.4554,0.6770,2.807
8.5740,1.7466,1.3192,0.3759,2.221
8.5740,0.9312,1.9647,0.1579,2.180
8.5750,0.2357,2.4381,-0.1030,2.452
8.5750,-0.4207,2.7373,-0.5239,2.819
8.5820,-1.0346,2.9585,-0.8822,3.256
8.5840,-1.5249,3.0304,-0.6961,3.463
8.5900,-1.8093,2.9367,-0.2684,3.460
8.5950,-2.0189,2.6753,-0.0097,3.352
8.6000,-2.2183,2.4233,0.0951,3.287
8.6040,-2.3422,2.1284,0.1051,3.167
8.6090,-2.3813,1.8766,0.0298,3.032
8.6140,-2.3904,1.5364,0.0474,2.842
8.6200,-2.4463,1.1247,0.1245,2.695
8.6240,-2.4513,0.7203,0.1896,2.562
8.6490,-2.4672,0.3161,0.2557,2.500
8.6500,-2.5230,-0.0616,0.2819,2.539
8.6500,-2.5396,-0.3435,0.2876,2.579
8.6500,-2.5939,-0.6207,0.2703,2.681
8.6510,-2.6476,-0.8189,0.3040,2.788
8.6530,-2.6483,-0.9168,0.4142,2.833
8.6580,-2.6944,-0.8550,0.4829,2.868
8.6610,-2.7905,-0.7027,0.4803,2.917
8.6680,-2.8462,-0.5199,0.5819,2.951
8.6720,-2.8802,-0.2226,0.6711,2.966
8.6760,-2.9811,0.1652,0.7850,3.087
8.6820,-3.1528,0.5604,0.9268,3.334
8.6850,-3.3184,0.9010,1.0596,3.598
8.6890,-3.4392,1.1780,1.2542,3.846
8.6960,-3.5122,1.3822,1.4762,4.053
8.7000,-3.6090,1.5809,1.6912,4.288
8.7040,-3.6096,1.7481,1.9253,4.449
8.7090,-3.4662,1.8024,2.0968,4.434
8.7300,-3.2102,1.6891,2.2842,4.287
8.7350,-2.9278,1.5515,2.4692,4.132
8.7350,-2.6960,1.4251,2.5968,4.005
8.7360,-2.4671,1.3048,2.7259,3.901
8.7370,-2.2626,1.1259,2.7609,3.743
8.7370,-2.0039,0.9312,2.7369,3.518
8.7430,-1.6960,0.7061,2.7999,3.349
8.7880,-1.4396,0.5031,2.8972,3.274
8.7890,-1.2422,0.3981,3.0013,3.273
8.7890,-1.0869,0.3171,3.0113,3.217
8.7900,-0.9476,0.2955,2.9241,3.088
8.7900,-0.8554,0.2783,2.7224,2.867
8.7910,-0.6816,0.2461,2.4792,2.583
8.7910,-0.5680,0.1913,2.2676,2.345
8.7920,-0.4340,0.1113,2.0102,2.060
8.7920,-0.2589,0.0009,1.7399,1.759
8.7930,-0.1105,-0.1784,1.4534,1.468
8.7930,0.0012,-0.3646,1.1476,1.204
8.7990,0.0042,-0.5124,0.8272,0.973
8.8030,-0.0248,-0.6240,0.4945,0.797
8.8080,-0.1069,-0.7113,0.0743,0.723
8.8140,-0.1390,-0.8193,-0.3312,0.895
8.8170,-0.1207,-0.9669,-0.7376,1.222
8.8220,-0.0758,-1.1277,-1.1079,1.583
8.8520,-0.0210,-1.3109,-1.4678,1.968
8.8530,-0.0136,-1.4164,-1.8543,2.333
8.8540,-0.1325,-1.5281,-2.1941,2.677
8.8540,-0.3174,-1.6648,-2.5211,3.038
8.8540,-0.4749,-1.7336,-2.8465,3.367
8.8550,-0.6904,-1.7917,-3.2234,3.752
8.8560,-0.9206,-1.8034,-3.6150,4.143
8.8610,-1.2005,-1.7832,-4.0666,4.600
8.8670,-1.4953,-1.7190,-4.9068,5.410
8.8720,-1.8011,-1.6089,-5.9109,6.385
8.8750,-2.0561,-1.4600,-6.6204,7.084
8.8800,-2.2185,-1.4928,-6.8741,7.376
8.8850,-2.2036,-1.7591,-6.8629,7.420
8.8890,-2.0619,-2.1823,-6.5365,7.193
8.8940,-1.9138,-2.5349,-6.2854,7.042
8.9000,-1.8803,-2.8184,-6.0518,6.936
8.9040,-1.9097,-3.0852,-6.0528,7.057
8.9080,-2.0824,-3.2454,-6.5402,7.592
8.9150,-2.1860,-3.4660,-7.8967,8.897
8.9200,-2.1987,-3.6584,-9.8058,10.695
8.9230,-2.0377,-3.8300,-11.1450,11.960
8.9270,-1.8603,-3.8707,-10.9050,11.720
8.9520,-1.6408,-3.7939,-9.4460,10.311
8.9530,-1.5201,-3.5747,-7.7437,8.663
8.9530,-1.6149,-3.3251,-6.3781,7.372
8.9540,-2.0428,-3.1429,-5.4058,6.578
8.9540,-2.3912,-2.9885,-4.7168,6.074
8.9550,-2.4873,-2.8729,-4.4182,5.828
8.9600,-2.4564,-2.8062,-4.2845,5.680
8.9660,-2.4098,-2.7442,-4.1441,5.524
8.9700,-2.1608,-2.7162,-3.9920,5.290
8.9750,-1.7662,-2.6298,-3.9655,5.076
8.9800,-1.2970,-2.5043,-4.0215,4.912
8.9850,-0.7962,-2.4994,-4.2107,4.961
8.9880,-0.3089,-2.6385,-4.7725,5.462
8.9920,0.3043,-2.9661,-5.6395,6.379
8.9980,0.8817,-3.3233,-6.5888,7.432
9.0020,1.2450,-3.6377,-7.2996,8.250
9.0070,1.2820,-3.8155,-7.6547,8.648
9.0180,1.1035,-3.9164,-7.5974,8.618
9.0200,0.7372,-3.9879,-7.1846,8.250
9.0800,0.2928,-4.0643,-6.4381,7.619
9.0810,-0.1755,-4.1145,-5.4853,6.859
9.0820,-0.5820,-4.1467,-4.4454,6.107
9.0820,-0.9685,-4.1589,-3.4650,5.499
9.0820,-1.1689,-4.2404,-2.5820,5.100
9.0830,-1.5752,-4.3345,-1.7117,4.919
9.0830,-1.7845,-4.4674,-0.9404,4.902
9.0840,-1.8059,-4.5607,-0.1870,4.909
9.0840,-1.6054,-4.7578,0.4344,5.040
9.0850,-1.0623,-5.0284,0.9377,5.224
9.0850,-0.4741,-5.2437,1.2890,5.421
9.0850,0.2494,-5.2702,1.5529,5.500
9.0860,0.9416,-5.3263,1.7976,5.700
9.0860,1.7043,-5.4670,2.0849,6.094
9.0880,2.4546,-5.6497,2.4930,6.645
9.0940,3.2011,-5.8554,2.9711,7.305
9.0980,3.8492,-6.0363,3.3970,7.924
9.1020,4.5110,-6.1207,3.8576,8.526
9.1070,5.2026,-6.1373,4.4778,9.208
9.1150,6.1525,-6.2151,5.5107,10.337
9.1180,6.9126,-6.1342,7.0147,11.603
9.1220,7.3276,-5.7149,8.4848,12.584
9.1260,7.4849,-5.0764,9.1325,12.853
9.1510,7.1611,-4.1273,8.9428,12.177
9.1520,6.6258,-3.0702,8.6677,11.334
9.1520,6.0026,-1.9450,8.4499,10.546
9.1520,5.1424,-0.7578,7.5497,9.166
9.1520,4.3889,0.3532,6.3735,7.747
9.1540,3.4604,1.4222,4.9137,6.176
9.1590,2.9071,2.2463,2.6527,4.531
9.1670,2.9504,2.4692,-1.9879,4.331
9.1710,2.3820,2.2528,-5.1253,6.084
9.1750,1.7751,2.1386,-6.1256,6.727
9.1780,1.1462,2.0609,-5.6627,6.134
9.1830,0.5873,1.9591,-4.4622,4.909
9.1890,0.3046,1.6751,-2.8060,3.282
9.1930,-0.0427,1.5742,-1.0160,1.874
9.2010,-0.3581,1.5748,0.8604,1.830
9.2020,-0.5518,1.6294,2.6190,3.133
9.2080,-0.7698,1.7067,4.0506,4.462
9.2110,-0.8250,1.9271,5.1189,5.532
9.2180,-1.1402,2.2976,5.8962,6.430
9.2240,-1.5137,2.6222,5.9687,6.693
9.2270,-1.7800,2.9712,5.8276,6.779
9.2710,-2.0063,3.3443,5.5010,6.743
9.2720,-2.1764,3.5294,5.1989,6.650
9.2720,-2.2585,3.5884,4.9987,6.555
9.2720,-2.6338,3.5606,4.8670,6.580
9.2720,-2.8916,3.5351,4.6772,6.537
9.2730,-3.0304,3.4263,4.6716,6.538
9.2730,-3.0127,3.2593,4.9183,6.625
9.2730,-2.9712,3.0606,5.2158,6.738
9.2740,-2.8350,2.8503,5.5326,6.839
9.2740,-2.7771,2.6381,5.7035,6.870
9.2780,-2.6213,2.3723,5.8866,6.867
9.2820,-2.3617,2.1439,5.9857,6.783
9.2870,-2.1670,2.0507,6.1675,6.851
9.2920,-1.9273,1.9950,6.4861,7.054
9.2960,-1.5828,1.9552,6.9086,7.352
9.3010,-1.0923,1.9623,7.4233,7.756
9.3050,-0.6392,2.0947,7.7452,8.049
9.3100,-0.2489,2.3613,7.9671,8.313
9.3150,-0.0104,2.6635,8.1226,8.548
9.3200,0.0414,3.0896,8.1939,8.757
9.3240,-0.0244,3.5965,8.1614,8.919
9.3380,-0.1972,4.0862,8.0379,9.019
9.3400,-0.4846,4.5878,7.8513,9.106
9.3420,-0.8473,4.9822,7.5138,9.055
9.3440,-1.1101,5.2818,7.1451,8.954
9.4090,-1.2700,5.3913,6.8748,8.829
9.4100,-1.3627,5.3566,6.6337,8.635
9.4110,-1.3121,5.1749,6.3815,8.320
9.4110,-1.1474,4.8680,6.1252,7.908
9.4120,-0.9431,4.4643,5.7645,7.352
9.4120,-0.7073,3.9846,5.2498,6.629
9.4130,-0.5574,3.3958,4.4970,5.663
9.4140,-0.4033,2.6877,3.2988,4.274
9.4140,-0.2860,1.8342,1.1362,2.176
9.4140,-0.1078,0.7866,-2.0145,2.165
9.4150,0.1521,-0.4916,-5.8003,5.823
9.4150,0.5523,-1.8870,-9.9466,10.139
9.4160,1.0163,-3.4546,-15.1331,15.556
9.4160,1.6056,-5.0802,-20.4227,21.106
9.4170,1.7942,-6.3114,-23.4174,24.319
9.4190,1.3534,-6.9774,-23.8146,24.853
9.4240,0.7020,-6.9988,-21.6143,22.730
9.4300,-0.2646,-6.4473,-18.4171,19.515
9.4350,-1.3562,-5.3785,-14.8789,15.879
9.4390,-2.1824,-4.2968,-11.2822,12.268
9.4430,-2.5561,-3.3346,-7.9996,9.036
9.4490,-1.6473,-2.9313,-4.9775,6.007
9.4540,0.1168,-2.7712,-2.8191,3.955
9.4580,2.1431,-2.5816,-1.2457,3.579
9.4910,3.8095,-2.2287,0.1649,4.417
9.4920,4.8787,-1.7216,1.6053,5.417
9.4920,5.1804,-1.1406,2.9093,6.050
9.4920,4.9763,-0.3163,3.8464,6.298
9.4930,4.2515,0.7054,4.3167,6.100
9.4930,3.2854,1.8652,4.3485,5.760
9.4940,2.2523,3.0393,4.0631,5.551
9.4970,1.2276,4.1036,3.5798,5.582
9.5000,0.3965,5.0326,2.8658,5.805
9.5040,-0.3177,5.7931,2.1029,6.171
9.5110,-0.9219,6.2353,1.7510,6.542
9.5150,-1.0992,5.8408,2.0062,6.273
9.5190,-0.4069,4.6107,2.6928,5.355
9.5240,0.7923,2.9754,3.6752,4.795
9.5290,2.2808,1.1966,4.9967,5.621
9.5590,3.5768,-0.4561,6.1117,7.096
9.5600,4.7984,-1.9960,6.6419,8.434
9.5600,5.8026,-3.3705,6.7677,9.531
9.5600,6.9758,-4.6878,6.7360,10.771
9.5610,8.1819,-6.0509,6.6264,12.144
9.5610,9.2370,-7.2133,6.4227,13.364
9.5620,9.9499,-8.0347,6.0351,14.141
9.5690,10.1786,-8.1969,5.2793,14.095
9.5760,9.6805,-7.5547,4.1030,12.947
9.5770,8.3520,-6.2946,0.5736,10.474
9.5810,6.5883,-5.0672,-1.8966,8.525
9.5870,4.8833,-3.1494,-0.7601,5.860
9.5900,3.6030,-1.3716,0.6347,3.907
9.5950,2.6328,0.0456,1.4845,3.023
9.6000,1.9544,1.0450,1.6969,2.791
9.6040,1.4293,1.7607,1.5648,2.755
9.6090,1.0023,2.2621,1.4265,2.856
9.6160,0.5973,2.5472,1.2848,2.915
9.6190,0.2273,2.6307,1.1753,2.890
9.6270,-0.1236,2.6423,1.1079,2.868
9.6500,-0.4212,2.4580,1.0623,2.711
9.6510,-0.6407,2.1837,0.9486,2.466
9.6510,-0.9806,1.9340,0.9033,2.349
9.6510,-1.2941,1.5924,0.8048,2.204
9.6510,-1.1709,0.9246,0.3823,1.540
9.6520,-1.0874,0.1747,0.8410,1.386
9.6570,-0.9418,-0.6076,1.2595,1.686
9.6620,-1.0540,-1.1328,1.3007,2.021
9.6670,-1.3355,-1.4395,1.1698,2.286
9.6710,-1.5398,-1.8671,1.0814,2.651
9.6750,-1.7760,-2.2693,0.9800,3.044
9.6800,-2.1303,-2.4428,0.8050,3.340
9.6850,-2.5865,-2.3583,0.5866,3.549
9.6900,-3.3760,-1.9944,-0.1208,3.923
9.6950,-4.7856,-1.3882,-1.5569,5.220
9.7010,-6.5645,-0.9382,-3.7937,7.640
9.7040,-7.3036,-0.8272,-4.3061,8.519
9.7090,-7.1931,-0.8348,-3.2473,7.936
9.7160,-8.0208,-0.6344,-2.7432,8.501
9.7230,-8.3940,-0.3383,-1.5647,8.545
9.7250,-6.4282,-0.5157,0.3670,6.459
9.7280,-4.8518,-0.4342,1.8375,5.206
9.7500,-4.1155,-0.0524,2.8190,4.989
9.7510,-3.7077,0.3564,3.6367,5.206
9.7510,-3.2429,0.7063,4.3028,5.434
9.7520,-2.8167,1.0381,4.9441,5.784
9.7520,-2.4709,1.4335,5.2981,6.019
9.7570,-2.2927,1.8047,5.3148,6.063
9.7610,-2.2208,2.0833,5.7787,6.532
9.7670,-2.1118,2.2799,6.5486,7.249
9.7700,-2.0307,2.4653,7.4355,8.092
9.7760,-2.0232,2.6930,7.6636,8.371
9.7800,-2.0163,2.7486,7.4470,8.190
9.7850,-1.8210,2.6753,7.2742,7.962
9.7890,-1.4264,2.4466,7.1495,7.690
9.7940,-0.9394,2.0378,7.0125,7.363
9.7990,-0.5258,1.6075,6.7244,6.934
9.8040,-0.2567,1.3147,6.1264,6.271
9.8090,-0.1153,1.1029,5.4240,5.536
9.8160,-0.0524,0.8353,4.7549,4.828
9.8190,-0.0734,0.5927,4.0895,4.133
9.8250,-0.0978,0.3340,3.5258,3.543
9.8300,-0.1519,0.0546,3.0295,3.034
9.8520,-0.1763,-0.2437,2.6324,2.650
9.8560,-0.2166,-0.5225,2.2669,2.336
9.8570,-0.3206,-0.6721,1.8816,2.024
9.8580,-0.4114,-0.8049,1.4932,1.745
9.8590,-0.4603,-1.0237,1.0534,1.539
9.8590,-0.5458,-1.2589,0.6952,1.538
9.8610,-0.6507,-1.4842,0.3555,1.659
9.8980,-0.7887,-1.6969,0.0263,1.871
9.8990,-0.8807,-1.8825,-0.3408,2.106
9.8990,-0.9622,-2.0482,-0.7347,2.379
9.8990,-1.0260,-2.1605,-1.0787,2.624
9.9000,-1.0697,-2.2410,-1.4422,2.872
9.9000,-1.1627,-2.3685,-1.7016,3.140
9.9000,-1.1713,-2.4881,-1.9104,3.348
9.9010,-1.1360,-2.6093,-2.0432,3.503
9.9040,-1.1935,-2.6437,-2.3944,3.761
9.9090,-1.3172,-2.6177,-2.8088,4.059
9.9130,-1.4781,-2.6292,-3.4253,4.564
9.9170,-1.6156,-2.6208,-4.1910,5.200
9.9230,-1.6740,-2.6735,-5.0911,5.989
9.9270,-1.7554,-2.7330,-6.1948,6.995
9.9330,-1.8319,-2.7944,-7.8666,8.547
9.9360,-2.1098,-2.8301,-10.0166,10.620
9.9410,-2.5693,-2.7367,-11.6029,12.195
9.9460,-2.9177,-2.5478,-11.2320,11.881
9.9740,-3.1240,-2.6268,-9.9011,10.709
9.9750,-3.1347,-2.9711,-8.8114,9.813
9.9750,-3.1338,-3.4338,-8.1795,9.408
9.9760,-3.0659,-4.0218,-8.2031,9.637
9.9760,-3.2220,-4.5571,-10.1159,11.553
9.9760,-3.4996,-5.0751,-14.6625,15.906
9.9800,-3.3914,-5.6237,-17.2374,18.446
9.9840,-2.8002,-5.9699,-14.6502,16.066
9.9900,-2.2183,-5.8508,-10.2690,12.025
9.9960,-1.9208,-5.2956,-6.5723,8.656
9.9990,-1.6993,-4.6472,-4.1980,6.489
10.0030,-1.6855,-4.1113,-3.0117,5.368
10.0070,-2.0617,-3.6806,-2.9572,5.152
10.0120,-2.4722,-3.2252,-3.4380,5.323
10.0170,-2.8812,-2.6760,-3.9905,5.602
10.0210,-2.9431,-2.2823,-3.8940,5.388
10.0260,-2.6364,-2.0749,-3.3831,4.765
10.0350,-2.0977,-1.9369,-2.6390,3.888
10.0400,-1.6798,-1.7708,-2.0152,3.165
10.0480,-1.3111,-1.7602,-1.5875,2.709
10.0490,-0.9963,-1.8758,-1.6283,2.676
10.0900,-0.7650,-2.0042,-2.1993,3.072
10.0900,-0.5409,-2.0822,-3.2604,3.906
10.0910,-0.2307,-2.1473,-4.5933,5.076
10.0910,0.2755,-2.4375,-5.9003,6.390
10.0910,0.7286,-2.7897,-6.9424,7.517
10.0910,0.8585,-3.1839,-7.5061,8.199
10.0920,0.8162,-3.6035,-7.2558,8.142
10.0920,0.5327,-3.9193,-6.1479,7.310
10.0920,0.0042,-4.1105,-4.6752,6.225
10.0930,-0.5840,-4.3025,-3.1596,5.370
10.0980,-1.1870,-4.4094,-1.7092,4.876
10.1030,-1.6526,-4.4704,-0.4624,4.788
10.1080,-1.7952,-4.6598,0.2007,4.998
10.1120,-1.7289,-4.8324,0.5630,5.163
10.1170,-1.4816,-4.9406,0.8489,5.227
10.1210,-1.0414,-4.9702,1.1057,5.197
10.1260,-0.5381,-5.0132,1.3006,5.207
10.1620,0.1668,-5.0623,1.6118,5.315
10.1630,0.8951,-5.1471,1.8872,5.555
10.1690,1.7581,-5.3275,2.1336,6.002
10.1700,2.6323,-5.5897,2.4057,6.630
10.1700,3.5107,-5.8505,2.6307,7.313
10.1710,4.3515,-6.0959,3.0612,8.091
10.1710,5.1574,-6.3095,3.7304,8.962
10.1720,5.9062,-6.4030,4.5777,9.841
10.1730,6.5703,-6.3884,5.2756,10.574
10.1730,7.0802,-6.2251,5.8704,11.106
10.1780,7.4747,-5.9270,6.5615,11.578
10.1830,7.7874,-5.3601,7.5741,12.114
10.1880,7.8590,-4.5505,8.5126,12.447
10.1920,7.6001,-3.5333,9.0480,12.333
10.1980,7.2206,-2.3534,9.1679,11.905
10.2020,6.5048,-1.0436,8.7838,10.980
10.2070,5.5002,0.2584,7.8694,9.604
10.2120,4.7561,1.2306,6.5752,8.208
10.2180,4.2411,1.9431,5.4768,7.194
10.2220,3.4432,2.7088,4.7713,6.478
10.2260,2.4864,3.5972,4.6296,6.368
10.2360,1.4787,4.4886,4.0552,6.227
10.2370,0.6072,5.3353,3.1073,6.204
10.2400,-0.1195,5.9123,2.0750,6.267
10.2450,-0.3967,5.9566,0.0013,5.970
10.2950,-0.6315,5.3698,-3.4763,6.428
10.2960,-0.9279,4.5404,-5.1052,6.895
10.2970,-1.0031,3.7953,-5.2021,6.517
10.2970,-1.0668,3.2338,-4.2934,5.480
10.2980,-0.9806,2.7930,-2.9111,4.152
10.2980,-0.8244,2.4153,-1.3311,2.878
10.2990,-0.6401,2.0811,-0.0604,2.178
10.2990,-0.6598,1.9624,1.1230,2.355
10.2990,-0.7098,1.9536,2.1642,3.001
10.3000,-0.7726,1.8878,3.0000,3.628
10.3000,-0.8322,1.9802,3.8901,4.444
10.3010,-1.1638,2.1017,4.6611,5.244
10.3070,-1.5076,2.2729,5.2878,5.950
10.3120,-1.8305,2.3914,5.7184,6.463
10.3170,-2.2371,2.5352,5.9744,6.865
10.3210,-2.5246,2.6717,6.1756,7.187
10.3250,-2.7566,2.7393,6.2051,7.322
10.3300,-2.7839,2.8065,6.1014,7.270
10.3360,-2.6506,2.6915,6.0526,7.135
10.3390,-2.4846,2.5173,5.9478,6.920
10.3440,-2.2754,2.2766,5.8003,6.634
10.3510,-2.0112,1.9963,5.7070,6.372
10.3540,-1.6801,1.6426,5.6779,6.145
10.3590,-1.2751,1.2871,5.7205,6.001
10.3630,-0.8515,1.0235,5.8076,5.958
10.3870,-0.5881,0.8992,5.9670,6.063
10.3870,-0.3592,0.9171,6.2105,6.288
10.3880,-0.1967,1.0914,6.6048,6.697
10.3880,-0.1405,1.5943,7.0204,7.201
10.3880,-0.2989,2.2868,7.3230,7.678
10.3930,-0.5881,2.9966,7.5365,8.132
10.3970,-0.8567,3.5520,7.5917,8.425
10.4020,-1.1125,4.0155,7.4692,8.553
10.4070,-1.3131,4.3802,7.2807,8.598
10.4110,-1.5197,4.6199,6.9889,8.515
10.4180,-1.6577,4.7638,6.6303,8.331
10.4200,-1.6478,4.7566,6.2582,8.032
10.4250,-1.4809,4.6036,5.8482,7.589
10.4300,-1.2151,4.3450,5.3242,6.979
10.4600,-0.8323,3.9283,4.6016,6.107
10.4610,-0.4276,3.4340,3.5272,4.941
10.4610,-0.0241,2.8521,2.2413,3.628
10.4610,0.2449,2.1563,0.8117,2.317
10.4620,0.4399,1.3311,-0.7187,1.575
10.4620,0.5838,0.4483,-2.4876,2.594
10.4650,0.6248,-0.4718,-4.7829,4.847
10.4690,0.7699,-1.4251,-7.6571,7.827
10.4730,0.9655,-2.3196,-10.9187,11.204
10.4770,1.2091,-3.1751,-14.4451,14.839
10.4820,1.2483,-3.9584,-17.0011,17.500
10.4880,0.9715,-4.5232,-17.9116,18.499
10.4920,0.5584,-4.9745,-17.8958,18.583
10.4970,0.0373,-5.1508,-16.9429,17.709
10.5020,-0.6585,-4.8877,-14.9647,15.756
10.5060,-1.2508,-4.2328,-12.5451,13.299
10.5100,-1.4686,-3.5629,-9.8366,10.565
10.5160,-1.0738,-3.0190,-7.1908,7.872
10.5210,0.1691,-2.7812,-4.7320,5.491
10.5240,2.0492,-2.6824,-2.5026,4.202
10.5300,3.8889,-2.3482,0.3063,4.553
10.5380,4.7282,-1.8345,2.0607,5.474
10.5490,4.8071,-1.4214,2.4608,5.584
10.5510,4.6422,-0.8563,2.8265,5.502
10.5520,4.3728,-0.0203,2.8587,5.224
10.5960,3.9348,0.9900,2.6631,4.853
10.5970,3.1524,2.0885,2.1292,4.340
10.5970,2.1943,3.1534,1.5043,4.126
10.5970,1.2482,4.2206,1.0918,4.535
10.5980,0.2909,5.2762,0.5525,5.313
10.5980,-0.7133,6.0954,0.0949,6.138
10.5980,-1.4295,6.3586,0.1764,6.520
10.5980,-1.4226,5.6886,1.0829,5.963
10.5990,-0.6552,4.3731,2.4825,5.071
10.5990,0.7396,2.7084,3.8959,4.802
10.6020,2.1837,0.9920,5.2931,5.811
10.6050,3.4083,-0.4683,6.3735,7.243
10.6110,4.4802,-1.7713,6.9005,8.416
10.6160,5.2550,-2.8956,7.0770,9.278
10.6200,5.9391,-3.7958,7.2104,10.083
10.6240,6.7088,-4.7297,7.2649,10.962
10.6320,7.4960,-5.6917,7.2913,11.906
10.6360,7.9933,-6.3613,6.8599,12.305
10.6390,8.0494,-6.5779,5.7841,11.896
10.6440,7.6963,-6.4806,4.4227,10.990
10.6480,7.4113,-6.1237,3.0066,10.073
10.6810,6.9492,-5.4674,0.5788,8.861
10.6810,6.0587,-4.9295,-2.9165,8.337
10.6820,4.7354,-3.5104,-2.4626,6.388
10.6820,3.5710,-1.7047,-1.0001,4.081
10.6820,2.5863,-0.2297,0.1398,2.600
10.6830,1.7477,0.9483,0.6135,2.081
10.6830,1.0357,1.8971,0.6751,2.264
10.6890,0.4277,2.5721,0.5727,2.670
10.6910,-0.0895,3.0095,0.4088,3.038
10.6970,-0.4581,3.1049,0.2861,3.152
10.7030,-0.6845,3.1099,0.1918,3.190
10.7070,-0.7566,2.9651,0.0518,3.061
10.7110,-0.7913,2.6419,0.0040,2.758
10.7160,-0.7842,2.2530,0.1292,2.389
10.7220,-0.8959,1.9392,0.4106,2.175
10.7250,-1.0514,1.6028,0.6429,2.022
10.7290,-1.2122,1.2153,0.7997,1.894
10.7550,-1.3367,0.7725,0.8314,1.753
10.7560,-1.3986,0.3295,0.7141,1.605
10.7590,-1.5078,-0.1352,0.4624,1.583
10.7690,-1.3079,-0.8149,0.2911,1.568
10.7700,-1.2305,-1.3250,0.3791,1.848
10.7710,-1.3449,-1.7065,0.7230,2.290
10.7710,-1.3597,-2.1245,1.1352,2.766
10.7720,-1.5426,-2.4282,1.1534,3.099
10.7720,-1.9105,-2.4149,0.8420,3.192
10.7770,-2.2523,-2.2924,0.7591,3.302
10.7820,-2.5097,-2.1390,0.8101,3.396
10.7860,-2.7331,-1.9117,0.8533,3.443
10.7910,-2.8977,-1.5910,0.8108,3.404
10.7950,-3.0497,-1.2032,0.7153,3.356
10.8000,-3.2218,-0.8197,0.6038,3.379
10.8050,-3.3189,-0.4787,0.8888,3.469
10.8100,-3.5443,0.0301,1.1728,3.733
10.8150,-3.8300,0.5923,1.4222,4.128
10.8200,-4.0703,1.1079,1.6708,4.537
10.8250,-4.1254,1.4484,1.9641,4.793
10.8290,-4.0216,1.6238,2.3024,4.910
10.8360,-3.9194,1.8443,2.6689,5.088
10.8390,-3.7588,2.0026,3.0807,5.256
10.8430,-3.5569,2.1535,3.5997,5.500
10.8480,-3.3922,2.3018,4.1234,5.814
10.8780,-3.1380,2.3042,4.5773,6.009
10.8790,-2.8540,2.1896,5.1411,6.275
10.8790,-2.5905,1.9915,5.6207,6.501
10.8790,-2.3214,1.7049,5.7887,6.466
10.8800,-2.0450,1.3582,5.7274,6.231
10.8800,-1.8882,1.1280,5.5413,5.962
10.8820,-1.8945,0.9969,5.0904,5.522
10.8880,-1.8487,0.9050,4.4964,4.945
10.8950,-1.6844,0.8062,3.8918,4.317
10.8960,-1.4936,0.6881,3.3098,3.696
10.9010,-1.2887,0.5311,2.8263,3.151
10.9050,-1.1211,0.3656,2.4188,2.691
10.9100,-1.0196,0.1435,2.0479,2.292
10.9140,-0.9226,-0.0805,1.7175,1.951
10.9190,-0.8327,-0.3425,1.4370,1.696
10.9240,-0.7691,-0.5661,1.1608,1.503
10.9290,-0.7368,-0.7802,0.9412,1.427
10.9370,-0.7070,-0.9920,0.7491,1.430
10.9380,-0.6939,-1.2133,0.5982,1.520
10.9430,-0.6447,-1.4511,0.4783,1.658
10.9480,-0.6167,-1.6527,0.3344,1.795
10.9730,-0.7004,-1.7914,0.0950,1.926
10.9740,-0.7471,-1.9532,-0.1585,2.097
10.9740,-0.8115,-2.0969,-0.4004,2.284
10.9740,-0.9006,-2.2511,-0.5692,2.491
10.9750,-0.9236,-2.3701,-0.6973,2.638
10.9760,-0.8978,-2.4853,-0.8427,2.774
10.9820,-0.9838,-2.5606,-0.9920,2.917
10.9870,-1.0884,-2.6464,-1.2366,3.117
10.9910,-1.2261,-2.7355,-1.4695,3.339
10.9960,-1.3248,-2.7918,-1.8431,3.598
11.0000,-1.4371,-2.8967,-2.9256,4.361
11.0050,-1.6886,-2.8522,-4.3687,5.484
11.0100,-1.7956,-2.7711,-6.1619,6.991
11.0140,-1.8511,-2.8439,-9.2913,9.891
11.0190,-1.9803,-2.7779,-13.0289,13.468
11.0240,-2.0589,-2.5902,-13.9370,14.324
11.0280,-2.0915,-2.6846,-12.9880,13.426
11.0330,-2.2422,-2.8924,-12.1111,12.652
11.0380,-2.3580,-3.1532,-11.7139,12.358
11.0430,-2.4322,-3.6077,-12.6688,13.395
11.0470,-2.4807,-4.3028,-16.0914,16.840
11.0730,-2.1495,-5.0799,-19.6956,20.453
11.0740,-1.0106,-6.1016,-17.2083,18.286
11.0740,-0.2321,-6.4471,-11.3938,13.093
11.0740,-0.1986,-5.9168,-6.6613,8.912
11.0750,-0.6116,-4.9586,-3.7647,6.256
11.0760,-1.1626,-4.3164,-2.2981,5.026
11.0810,-1.8466,-3.8728,-1.6290,4.589
11.0850,-2.2559,-3.3877,-1.5818,4.367
11.0910,-2.4419,-2.8737,-2.1898,4.361
11.0940,-2.5848,-2.5094,-2.9227,4.639
11.0990,-2.6243,-2.3097,-3.5828,5.006
11.1030,-2.4801,-2.1345,-3.8281,5.036
11.1080,-1.9764,-2.2812,-3.4229,4.564
11.1130,-1.2247,-2.6304,-2.4274,3.783
11.1180,-0.7064,-2.7879,-1.7228,3.353
11.1220,-0.5172,-2.7434,-1.6836,3.260
11.1280,-0.4546,-2.5986,-2.2601,3.474
11.1320,-0.1382,-2.5836,-3.7000,4.515
11.1390,0.3981,-2.6803,-5.8802,6.475
11.1420,1.2198,-2.9112,-8.0530,8.649
11.1470,1.8201,-3.1744,-9.2823,9.978
11.1710,1.9681,-3.4454,-9.3980,10.201
11.1720,1.5094,-3.6738,-8.5360,9.415
11.1720,0.7979,-3.8368,-7.1666,8.168
11.1730,-0.1058,-3.8516,-5.3633,6.604
11.1730,-0.7443,-4.0107,-3.3383,5.271
11.1750,-1.1896,-4.2102,-1.3914,4.591
11.1800,-1.6607,-4.4291,0.1767,4.734
11.1860,-1.8929,-4.5916,1.1406,5.096
11.1910,-1.7638,-4.7647,1.6437,5.340
11.1970,-1.4484,-4.9510,1.7890,5.460
11.1990,-0.9740,-5.0964,1.8285,5.501
11.2030,-0.3389,-5.0651,1.9835,5.450
11.2080,0.2835,-4.9390,2.0916,5.371
11.2120,0.8351,-4.8428,2.2114,5.389
11.2170,1.4388,-4.8436,2.3556,5.575
11.2220,2.0532,-4.9292,2.5702,5.926
11.2270,2.5868,-4.9180,2.8223,6.232
11.2320,3.1338,-4.9343,3.0898,6.612
11.2370,3.8252,-5.0114,3.4348,7.179
11.2420,4.4609,-5.0704,3.8862,7.792
11.2460,5.0643,-5.1376,4.4616,8.482
11.2730,5.5636,-5.0813,4.9132,8.995
11.2740,5.9245,-4.9037,5.2704,9.323
11.2740,6.3698,-4.7338,5.8979,9.888
11.2740,6.8031,-4.4205,6.7147,10.531
11.2740,6.7538,-3.8061,7.2391,10.607
11.2750,6.7016,-3.1049,7.5603,10.569
11.2800,6.5830,-2.3331,7.8131,10.480
11.2860,5.8902,-1.2439,7.5537,9.659
11.2910,5.0532,-0.1544,6.9012,8.555
11.2950,4.1933,0.7756,5.9412,7.313
11.2990,3.6142,1.4322,4.9722,6.312
11.3030,3.1599,1.9228,4.0292,5.470
11.3090,2.8039,2.1420,2.0189,4.065
11.3130,2.2862,1.9412,-1.4949,3.351
11.3180,1.6957,1.6852,-3.7395,4.438
11.3270,1.2069,1.5596,-4.5540,4.963
11.3270,0.5675,1.5585,-4.1828,4.500
11.3320,0.2198,1.6744,-3.1762,3.597
11.3380,-0.3690,1.7943,-2.2016,2.864
11.3450,-1.2113,1.9270,-1.0878,2.523
11.3470,-1.9426,2.1467,0.2787,2.909
11.3500,-2.0564,2.4085,1.8021,3.644
11.3560,-2.0593,2.5524,3.2993,4.652
11.3600,-1.9550,2.6307,4.6918,5.723
11.3640,-1.5958,2.6752,5.6911,6.488
11.4180,-1.3748,2.8193,6.4981,7.215
11.4190,-1.4810,3.2373,6.7389,7.621
11.4190,-1.5415,3.4612,6.8766,7.851
11.4200,-1.6745,3.6823,6.8380,7.945
11.4200,-1.8853,3.8323,6.5903,7.853
11.4210,-2.0504,3.8876,6.0914,7.512
11.4210,-2.4104,3.8162,5.4702,7.092
11.4210,-2.5244,3.7074,4.9747,6.698
11.4220,-2.4928,3.4924,4.6953,6.361
11.4220,-2.4400,3.2420,4.8090,6.292
11.4230,-2.3700,3.0355,5.1106,6.399
11.4230,-2.2959,2.8578,5.6158,6.706
11.4270,-2.1443,2.6713,6.2656,7.141
11.4310,-1.9818,2.5796,6.9689,7.691
11.4370,-1.7569,2.5788,7.6418,8.254
11.4420,-1.3611,2.5588,8.2092,8.706
11.4460,-0.8954,2.6437,8.5899,9.032
11.4500,-0.5883,2.8851,8.7437,9.226
11.4580,-0.5262,3.2795,8.6116,9.230
11.4600,-0.6791,3.7641,8.3133,9.151
11.4650,-0.9073,4.2091,7.8911,8.989
11.4920,-1.1069,4.5379,7.4495,8.793
11.4930,-1.3041,4.7553,7.0847,8.632
11.4930,-1.4218,4.8633,6.7617,8.450
11.4940,-1.4716,4.7861,6.4900,8.197
11.4940,-1.4176,4.5710,6.1774,7.814
11.4940,-1.3437,4.2280,5.8022,7.304
11.4980,-1.1759,3.7953,5.3807,6.689
11.5030,-0.9700,3.2439,4.8607,5.924
11.5100,-0.6905,2.6077,4.0954,4.904
11.5120,-0.4321,1.8141,3.1329,3.646
11.5190,-0.1765,0.9227,1.6573,1.905
11.5220,0.1202,-0.1121,-0.7188,0.737
11.5270,0.5529,-1.3329,-4.2613,4.499
11.5310,1.1223,-2.7626,-9.3188,9.784
11.5360,1.7782,-4.2635,-15.1332,15.823
11.5410,2.4802,-5.7419,-19.9213,20.880
11.5450,2.3533,-6.7359,-21.8854,23.019
11.5500,1.5870,-6.9159,-21.5635,22.701
11.5550,0.5861,-6.3040,-19.2342,20.249
11.5620,-0.5303,-5.2192,-16.2549,17.081
11.5640,-1.7825,-4.0539,-12.9451,13.682
11.5910,-2.4051,-3.1565,-9.6015,10.389
11.5920,-2.3206,-2.5045,-6.4799,7.324
11.5920,-1.8622,-2.0102,-4.0471,4.887
11.5920,-0.8828,-1.8149,-2.6146,3.303
11.5920,0.2953,-1.6948,-1.7670,2.466
11.5930,1.6654,-1.5487,-0.8009,2.411
11.5990,2.9389,-1.3327,0.5249,3.269
11.6030,3.6241,-1.0172,1.7613,4.156
11.6090,3.6447,-0.5335,2.6103,4.515
11.6120,3.2604,0.1488,3.0550,4.470
11.6160,2.7213,0.9481,3.1418,4.263
11.6210,2.2252,1.6541,2.8777,3.996
11.6250,1.8497,2.1999,2.2588,3.656
11.6300,1.5546,2.5262,1.3868,3.274
11.6410,1.5046,2.5374,0.5230,2.996
11.6430,1.8037,2.0523,-0.1190,2.735
11.6440,2.3666,1.1457,-0.4681,2.671
11.6490,3.1228,0.0849,-0.3198,3.140
11.6830,3.9931,-1.0131,0.7229,4.183
11.6840,4.7857,-2.0199,2.5128,5.770
11.6850,5.4403,-2.9597,4.3001,7.540
11.6850,6.1704,-3.8876,5.8975,9.379
11.6850,6.8962,-4.7014,7.1927,11.018
11.6850,7.5288,-5.2195,7.7909,12.026
11.6860,7.8448,-5.3827,7.7536,12.273
11.6920,7.6574,-4.9686,7.2803,11.676
11.6930,6.7730,-3.8285,6.3455,10.040
11.6980,5.5205,-2.2892,5.2523,7.956
11.7020,4.3919,-0.9332,4.2100,6.155
11.7100,3.3971,0.1007,3.4534,4.845
11.7120,2.6121,0.9431,2.8489,3.979
11.7180,1.9133,1.6813,2.3352,3.456
11.7220,1.3725,2.2715,1.9372,3.286
11.7280,1.0156,2.6913,1.5829,3.283
11.7300,0.8841,2.9644,1.2671,3.343
11.7350,0.8571,3.0164,1.0783,3.316
11.7410,0.9908,2.7943,0.9978,3.128
11.7450,1.0647,2.5206,1.0113,2.917
11.7500,0.9937,2.2241,1.1010,2.673
11.7780,0.8627,1.9219,1.1479,2.399
11.7780,0.7018,1.5859,1.2912,2.162
11.7790,0.4889,1.2692,1.4505,1.988
11.7790,0.2685,0.9390,1.5493,1.831
11.7790,0.0831,0.6343,1.6743,1.792
11.7790,-0.1188,0.3247,1.7511,1.785
11.7820,-0.2995,0.0157,1.8399,1.864
11.7890,-0.5182,-0.3138,1.7662,1.867
11.7950,-0.7144,-0.6658,1.5443,1.827
11.7970,-0.6345,-1.1548,1.2868,1.842
11.8010,-0.6074,-1.6544,1.5075,2.319
11.8070,-0.4973,-2.1290,2.1533,3.069
11.8120,-0.5014,-2.5148,2.7094,3.730
11.8160,-0.6708,-2.6496,2.6835,3.830
11.8200,-0.8988,-2.6012,2.3451,3.616
11.8290,-1.2245,-2.4680,2.0117,3.411
11.8300,-1.6212,-2.2140,1.6513,3.203
11.8350,-1.9124,-1.9042,1.4381,3.058
11.8400,-2.2266,-1.3494,1.2882,2.905
11.8440,-2.6709,-0.6620,1.1846,2.996
11.8490,-3.0313,0.0126,1.1963,3.259
11.8730,-3.4317,0.5744,0.9428,3.605
11.8740,-3.7785,0.9904,0.8016,3.988
11.8740,-3.9901,1.3830,0.9247,4.323
11.8740,-3.9091,1.7187,1.3501,4.479
11.8750,-3.7315,1.9067,1.9059,4.603
11.8770,-3.6416,2.0235,2.2602,4.740
11.8820,-3.5080,2.0764,2.5898,4.830
11.8870,-3.3687,2.0943,2.6657,4.779
11.8920,-3.3314,2.0555,2.6529,4.729
11.8960,-3.3668,2.0058,2.6924,4.755
11.9000,-3.4534,1.9573,2.6352,4.765
11.9050,-3.4563,1.8459,2.6202,4.714
11.9100,-3.4401,1.7171,2.6562,4.673
11.9150,-3.3591,1.5307,2.7470,4.601
11.9190,-3.1748,1.2867,2.9309,4.508
11.9240,-2.9206,0.9615,3.2886,4.502
11.9290,-2.6706,0.6052,3.6624,4.573
11.9330,-2.4704,0.2105,3.8649,4.592
11.9390,-2.3892,-0.0985,3.7558,4.452
11.9440,-2.4294,-0.3244,3.4286,4.215
11.9480,-2.3468,-0.4698,3.1033,3.919
11.9620,-2.2088,-0.6141,2.7263,3.562
11.9650,-1.9630,-0.6859,2.3469,3.136
11.9670,-1.6752,-0.7122,2.0164,2.716
11.9680,-1.4343,-0.7271,1.7630,2.386
12.0140,-1.2552,-0.7000,1.5196,2.092
12.0140,-1.0142,-0.7318,1.3500,1.840
12.0150,-0.7737,-0.8371,1.2102,1.663
12.0150,-0.5752,-0.9207,1.0690,1.524
12.0150,-0.4045,-1.0258,0.9783,1.474
12.0150,-0.3215,-1.1094,0.8375,1.427
12.0160,-0.2589,-1.1881,0.6322,1.370
12.0160,-0.1998,-1.2284,0.4894,1.337
12.0160,-0.2615,-1.2182,0.3181,1.286
12.0160,-0.3671,-1.2053,0.1700,1.271
12.0200,-0.4303,-1.2178,0.0114,1.292
12.0240,-0.4676,-1.2267,-0.1415,1.320
12.0280,-0.4502,-1.2441,-0.3224,1.362
12.0340,-0.4312,-1.2910,-0.5104,1.454
12.0380,-0.3747,-1.3436,-0.6661,1.546
12.0430,-0.3837,-1.4280,-0.8263,1.694
12.0470,-0.3482,-1.6110,-0.9635,1.909
12.0790,-0.3353,-1.7656,-1.0409,2.077
12.0790,-0.2905,-1.9399,-1.2192,2.310
12.0790,-0.1759,-2.1629,-1.4730,2.623
12.0800,-0.1164,-2.4105,-2.0408,3.161
12.0800,-0.2024,-2.5878,-3.4389,4.309
12.0800,-0.1825,-2.7720,-10.4925,10.854
12.0810,0.1222,-3.0691,-16.5344,16.817
12.0850,0.0370,-3.1966,-17.3136,17.606
12.0910,-0.3827,-3.1856,-16.1248,16.441
12.0960,-0.8254,-3.3642,-14.9465,15.343
12.1010,-1.1546,-3.6590,-14.7833,15.273
12.1060,-1.2623,-4.1985,-14.9862,15.614
12.1100,-1.1386,-4.7491,-12.9436,13.834
12.1140,-0.8688,-5.3113,-8.5545,10.107
12.1250,-0.6999,-5.6353,-4.6731,7.354
12.1250,-0.8229,-5.3720,-2.2495,5.882
12.1290,-1.1814,-4.7701,-1.1275,5.042
12.1330,-1.6900,-4.2271,-0.7587,4.615
12.1390,-2.2384,-3.6673,-0.6847,4.351
12.1450,-2.6955,-3.1057,-0.6816,4.168
12.1470,-2.9581,-2.5736,-0.7527,3.992
12.1510,-3.0193,-2.0809,-1.3126,3.895
12.1910,-2.9416,-1.3804,-2.8942,4.351
12.1920,-2.6361,-0.5572,-5.5454,6.165
12.1920,-2.0663,0.0951,-7.7894,8.059
12.1920,-1.2486,0.1574,-8.2054,8.301
12.1930,-0.3564,-0.3258,-6.9588,6.976
12.1930,0.3199,-0.9072,-5.3820,5.467
12.1930,0.6320,-1.1682,-4.1994,4.404
12.1940,0.6863,-1.1946,-3.6357,3.888
12.1940,0.8429,-1.1791,-3.7605,4.030
12.2000,1.1177,-1.2060,-4.7318,5.009
12.2050,1.5346,-1.2448,-6.4907,6.785
12.2090,1.9012,-1.4268,-8.8195,9.134
12.2140,2.0244,-1.7082,-9.8841,10.233
12.2190,1.7213,-2.0320,-8.8569,9.249
12.2250,1.1393,-2.1262,-6.7396,7.158
12.2280,0.5417,-2.2796,-4.6664,5.222
12.2330,-0.0587,-2.6450,-3.3151,4.241
12.2410,-0.6780,-3.1137,-2.3842,3.980
12.2440,-1.1606,-3.6289,-1.6236,4.141
12.2480,-1.5351,-4.0937,-0.9920,4.483
12.2520,-1.7788,-4.5370,-0.5617,4.905
12.2850,-2.0219,-4.8304,-0.1752,5.239
12.2860,-2.0866,-5.0624,0.2039,5.479
12.2860,-1.9059,-5.2982,0.5897,5.661
12.2860,-1.7912,-5.5188,0.8268,5.861
12.2860,-1.4648,-5.5902,1.0328,5.870
12.2870,-1.0209,-5.4557,1.2728,5.694
12.2870,-0.4692,-5.2707,1.4669,5.491
12.2930,0.1074,-5.0333,1.6540,5.299
12.2960,0.7725,-4.9131,1.9201,5.331
12.3010,1.4601,-4.8888,2.2488,5.576
12.3060,2.1629,-5.0085,2.5385,6.017
12.3110,2.8915,-5.2124,2.8467,6.606
12.3140,3.6698,-5.4338,3.2208,7.305
12.3180,4.4372,-5.6367,3.6721,8.059
12.3320,5.1632,-5.8187,4.2869,8.882
12.3320,5.7804,-5.8674,4.9207,9.594
12.3330,6.4225,-5.8258,5.4623,10.248
12.3400,6.9044,-5.5839,6.0419,10.740
12.3430,7.1720,-5.0724,7.0701,11.276
12.3480,7.1859,-4.1996,7.9044,11.478
12.3510,6.9984,-3.1016,8.4125,11.374
12.3820,6.7741,-2.0591,7.8118,10.543
12.3830,6.0523,-0.8425,6.2956,8.774
12.3840,5.3054,0.1303,5.1399,7.388
12.3850,4.6416,0.9915,4.2934,6.400
12.3870,3.9371,1.7772,3.1905,5.370
12.3880,3.3218,2.2296,0.3020,4.012
12.3880,2.5593,2.2339,-2.3973,4.158
12.3920,1.9582,2.0215,-3.8271,4.751
12.3940,1.4006,1.8448,-4.5099,5.070
12.3990,0.9210,1.6616,-4.3335,4.732
12.4040,0.3108,1.6262,-3.6570,4.014
12.4080,-0.1760,1.7303,-2.3053,2.888
12.4130,-0.4420,1.8781,-0.5006,1.993
12.4170,-0.5229,1.9807,1.3783,2.469
12.4220,-0.5431,2.0859,3.1198,3.792
12.4300,-0.4688,2.4284,4.5946,5.218
12.4320,-0.4831,2.7592,5.8712,6.505
12.4520,-0.5391,3.0932,6.8940,7.575
12.4610,-0.6149,3.4212,7.3637,8.143
12.4630,-0.8589,3.7672,7.3126,8.271
12.4650,-1.4308,4.2137,6.9214,8.228
12.4670,-1.8885,4.6006,6.3322,8.052
12.4670,-2.2333,4.7763,5.8080,7.844
12.4680,-2.5907,4.8797,5.4714,7.776
12.5190,-2.7950,4.8601,5.4005,7.784
12.5200,-2.9269,4.6776,5.2766,7.635
12.5210,-3.0191,4.3355,5.1742,7.395
12.5210,-2.9155,3.9762,5.1187,7.107
12.5220,-2.9101,3.5162,5.2973,6.992
12.5220,-2.7340,3.0548,5.7787,7.085
12.5220,-2.4662,2.6119,6.3369,7.284
12.5230,-2.2017,2.2314,6.8379,7.522
12.5230,-1.8844,1.9658,7.1872,7.686
12.5230,-1.5226,1.7216,7.4532,7.800
12.5240,-1.0429,1.6225,7.6127,7.853
12.5240,-0.5711,1.7054,7.6589,7.867
12.5270,-0.2872,2.0454,7.5788,7.855
12.5370,-0.2284,2.5863,7.3701,7.814
12.5380,-0.3336,3.1793,7.1115,7.797
12.5420,-0.5126,3.7139,6.8916,7.845
12.5470,-0.6714,4.1498,6.6512,7.868
12.5520,-0.7564,4.4369,6.3343,7.771
12.5570,-0.7486,4.5898,5.9719,7.569
12.5610,-0.6960,4.5918,5.5599,7.244
12.5650,-0.6061,4.4692,5.0883,6.799
12.5700,-0.4580,4.1721,4.5186,6.167
12.6030,-0.2839,3.6856,3.8390,5.329
12.6030,-0.0893,3.0362,2.9842,4.258
12.6030,0.1458,2.2712,1.8897,2.958
12.6040,0.3894,1.3549,0.4591,1.483
12.6040,0.6921,0.3220,-1.5890,1.763
12.6040,1.1116,-0.8496,-4.5622,4.772
12.6040,1.6503,-2.1495,-8.8356,9.242
12.6080,2.3124,-3.5926,-13.2251,13.898
12.6130,2.8481,-4.7708,-16.6238,17.528
12.6190,2.7598,-5.3328,-18.7472,19.685
12.6230,1.8632,-5.1181,-18.9927,19.758
12.6270,0.7078,-4.3233,-17.2496,17.797
12.6310,-0.5663,-3.3821,-14.2828,14.689
12.6360,-1.7429,-2.5318,-11.0173,11.438
12.6420,-2.4932,-1.9834,-8.1977,8.795
12.6460,-2.6708,-1.5770,-5.9106,6.675
12.6500,-2.3337,-1.3381,-4.4413,5.193
12.6820,-1.7855,-1.1097,-3.5799,4.151
12.6830,-0.9994,-0.9526,-2.8393,3.157
12.6830,-0.0262,-0.8443,-1.8902,2.070
12.6830,1.0352,-0.7640,-0.7564,1.492
12.6840,1.9287,-0.6173,0.3360,2.053
12.6840,2.5096,-0.3595,1.2287,2.817
12.6840,2.7131,0.0658,1.8157,3.265
12.6890,2.4733,0.6868,2.1511,3.349
12.6980,1.9331,1.4319,2.3536,3.365
12.6990,1.3497,2.1863,2.3182,3.461
12.7030,0.7391,2.8788,1.9813,3.572
12.7080,0.2046,3.4234,1.4644,3.729
12.7120,-0.1459,3.6723,0.8153,3.765
12.7180,-0.1048,3.3848,0.1642,3.390
12.7230,0.4991,2.6372,-0.1656,2.689
12.7280,1.5499,1.4272,-0.1424,2.112
12.7310,2.7819,0.0335,0.3732,2.807
12.7360,3.9388,-1.2428,1.6641,4.453
12.7430,4.8638,-2.4385,3.3060,6.367
12.7470,5.6207,-3.3955,4.6351,8.038
12.7510,6.2879,-4.1881,5.5056,9.348
12.8030,6.8672,-4.8740,6.0915,10.393
12.8040,7.4301,-5.4385,6.3165,11.166
12.8040,7.7722,-5.8006,6.2223,11.523
12.8050,7.7874,-5.8094,5.9122,11.373
12.8050,7.4748,-5.4411,5.1987,10.607
12.8050,6.9802,-4.8216,3.9622,9.363
12.8060,6.4137,-4.4674,-1.2935,7.923
12.8060,5.6319,-3.8730,-5.2781,8.636
12.8060,4.4921,-1.9573,-3.9845,6.316
12.8070,3.2012,-0.1828,-1.3920,3.496
12.8070,2.3414,1.0616,0.7061,2.666
12.8090,1.9107,1.8842,2.0400,3.371
12.8120,1.6461,2.3663,2.6040,3.885
12.8160,1.3706,2.6899,2.6392,4.010
12.8210,1.1509,2.8645,2.5734,4.019
12.8250,1.0038,2.8281,2.6048,3.974
12.8300,0.7289,2.6743,2.6987,3.869
12.8350,0.3200,2.5160,2.6668,3.680
12.8400,0.0148,2.3130,2.5762,3.462
12.8440,-0.2881,2.1257,2.5302,3.317
12.8530,-0.5233,1.9092,2.5360,3.217
12.8680,-0.7448,1.6306,2.5599,3.125
12.8690,-0.8873,1.3191,2.4941,2.958
12.8690,-1.0269,0.9368,2.3359,2.718
12.8690,-1.1132,0.5558,2.0324,2.383
12.9150,-1.2658,0.2045,1.5881,2.041
12.9160,-1.2982,-0.2457,1.0668,1.698
12.9170,-1.0606,-0.8932,0.9558,1.684
12.9170,-0.8701,-1.4586,1.0484,1.996
12.9180,-0.7969,-1.8731,1.0478,2.289
12.9180,-0.7342,-2.2570,1.0970,2.615
12.9190,-0.9554,-2.3690,1.0730,2.771
12.9190,-1.4128,-2.2265,1.0230,2.828
12.9190,-2.0289,-1.7815,0.9695,2.869
12.9200,-2.5611,-1.2774,0.9431,3.013
12.9200,-2.6880,-1.0624,1.1293,3.103
12.9250,-2.6535,-0.8730,1.3990,3.124
12.9300,-2.5370,-0.6856,1.6896,3.124
12.9340,-2.3297,-0.4619,2.0672,3.149
12.9400,-2.1189,-0.1786,2.5148,3.293
12.9450,-2.0221,0.1664,2.7837,3.445
12.9490,-2.1660,0.5799,2.9129,3.676
12.9540,-2.4379,0.9400,2.9457,3.937
12.9870,-2.6553,1.3046,2.9537,4.181
12.9880,-2.8035,1.6285,2.8723,4.332
12.9880,-2.9055,1.8812,2.8618,4.491
12.9890,-3.0160,2.0749,2.9148,4.679
12.9890,-3.0027,2.1766,3.0075,4.775
12.9900,-2.9945,2.2441,3.1514,4.892
12.9910,-2.9742,2.2681,3.2530,4.957
12.9940,-2.9009,2.2106,3.3406,4.946
12.9990,-2.7126,2.0192,3.4663,4.843
13.0030,-2.4526,1.7416,3.5992,4.691
13.0060,-2.1527,1.4662,3.7123,4.535
13.0110,-1.9470,1.2380,3.8294,4.471
13.0160,-1.7283,0.9637,3.8089,4.292
13.0200,-1.6474,0.7315,3.6289,4.052
13.0260,-1.6997,0.6103,3.3261,3.785
13.0300,-1.7651,0.5882,2.9884,3.520
13.0350,-1.7766,0.5333,2.6933,3.270
13.0410,-1.6170,0.4552,2.4737,2.990
13.0460,-1.3614,0.2769,2.2878,2.677
13.0490,-1.1179,0.1198,2.0736,2.359
13.0540,-0.9515,-0.0428,1.9051,2.130
13.0750,-0.7601,-0.2065,1.7222,1.894
13.0750,-0.6203,-0.3191,1.5479,1.698
13.0750,-0.4988,-0.4310,1.3639,1.515
13.0760,-0.3241,-0.5998,1.1930,1.374
13.0790,-0.1921,-0.7419,1.0152,1.272
13.0830,-0.1076,-0.8408,0.8253,1.183
13.0890,-0.1065,-0.9180,0.5722,1.087
13.0920,-0.1379,-1.0117,0.3224,1.071
13.0980,-0.1609,-1.0928,0.0820,1.108
13.1010,-0.2325,-1.1110,-0.1542,1.146
13.1060,-0.3260,-1.1594,-0.3505,1.254
13.1120,-0.3982,-1.2044,-0.5621,1.387
13.1150,-0.4444,-1.3413,-0.7466,1.598
13.1200,-0.4983,-1.4603,-0.8527,1.763
13.1250,-0.5982,-1.6066,-0.8264,1.903
13.1300,-0.6174,-1.7539,-0.8461,2.043
13.1340,-0.6542,-1.9117,-0.9724,2.242
13.1420,-0.6989,-2.0823,-1.1153,2.463
13.1450,-0.7492,-2.1439,-1.3808,2.658
13.1490,-0.8404,-2.2087,-1.8995,3.032
13.1530,-1.0149,-2.1261,-2.6432,3.541
13.1850,-1.0468,-2.1734,-3.6520,4.377
13.1850,-1.1240,-2.1577,-5.7541,6.247
13.1860,-1.2556,-2.1259,-8.8861,9.223
13.1860,-1.2989,-2.0820,-11.7619,12.015
13.1860,-1.1934,-2.2817,-11.4795,11.765
13.1870,-1.0994,-2.6002,-9.9962,10.387
13.1870,-1.2128,-2.8842,-9.0712,9.596
13.1920,-1.5372,-3.0904,-8.6810,9.342
13.1990,-1.6617,-3.4535,-9.2727,10.033
13.2000,-1.8466,-3.9611,-12.0148,12.785
13.2070,-1.7891,-4.5085,-15.8115,16.539
13.2110,-1.0300,-5.1895,-14.5624,15.494
13.2150,-0.3727,-5.4669,-9.6635,11.109
13.2200,-0.3759,-5.1353,-5.5281,7.555
13.2250,-0.6198,-4.6194,-3.0320,5.560
13.2290,-1.0745,-4.3115,-1.7849,4.788
13.2340,-1.8472,-3.9483,-1.2323,4.530
13.2400,-2.4559,-3.4449,-1.2743,4.418
13.2490,-2.7270,-2.9307,-2.2180,4.577
13.2500,-2.8322,-2.4784,-3.8687,5.397
13.2520,-2.6625,-2.1466,-5.7070,6.653
13.3020,-2.2847,-1.8934,-7.2644,7.847
13.3030,-1.7079,-2.0432,-7.2637,7.736
13.3040,-0.9435,-2.5604,-6.0158,6.606
13.3040,-0.2132,-3.0510,-4.6193,5.540
13.3040,0.2723,-3.2753,-3.5623,4.847
13.3050,0.1918,-3.0919,-3.2018,4.455
13.3050,0.0953,-2.8147,-3.3640,4.387
13.3050,0.1600,-2.6886,-4.0747,4.884
13.3060,0.3186,-2.7595,-5.1308,5.835
13.3060,0.5613,-2.9803,-6.2929,6.986
13.3070,0.7721,-3.3470,-7.5118,8.260
13.3090,0.9022,-3.7624,-8.1756,9.045
13.3140,0.9102,-4.0441,-7.8110,8.843
13.3180,0.5750,-4.2123,-6.5684,7.824
13.3230,-0.2254,-4.1470,-4.9272,6.444
13.3280,-1.0401,-4.2207,-3.3737,5.503
13.3330,-1.7203,-4.2381,-2.0691,5.020
13.3380,-2.1820,-4.2484,-0.9963,4.879
13.3430,-2.3639,-4.2064,-0.1624,4.828
13.3480,-2.3970,-4.0912,0.3693,4.756
13.3520,-2.1780,-3.8820,0.7003,4.506
13.3840,-1.8074,-3.6941,0.8832,4.206
13.3850,-1.2429,-3.5782,1.0154,3.922
13.3850,-0.5333,-3.4864,1.1674,3.715
13.3850,0.2000,-3.4913,1.2967,3.730
13.3860,0.9939,-3.6861,1.4703,4.091
13.3980,1.7683,-3.9536,1.6740,4.643
13.3990,2.5096,-4.3346,1.9616,5.379
13.4020,3.2551,-4.7165,2.3183,6.182
13.4020,3.9743,-5.0683,2.6217,6.954
13.4030,4.7762,-5.4761,3.1648,7.926
13.4070,5.5428,-5.8440,3.7429,8.882
13.4110,6.2131,-6.0740,4.4810,9.776
13.4150,6.8181,-6.1304,5.2900,10.585
13.4190,7.3546,-5.9341,6.1012,11.248
13.4250,7.6008,-5.5330,6.9860,11.713
13.4300,7.6555,-4.9123,7.8638,12.024
13.4320,7.5609,-3.9831,8.2576,11.884
13.4370,7.2946,-2.8527,7.6406,10.942
13.4450,6.7309,-1.6067,6.9402,9.801
13.4480,5.9622,-0.4862,6.3612,8.732
13.4510,5.0399,0.6747,5.4841,7.479
13.4570,4.2729,1.5892,4.3725,6.317
13.4630,3.9136,2.1478,3.8338,5.885
13.4660,3.5947,2.7039,3.6607,5.799
13.4700,3.1960,3.2213,3.3948,5.667
13.5270,2.6112,3.6328,2.7346,5.243
13.5270,1.9684,3.7590,0.6600,4.294
13.5270,1.2884,3.4611,-2.0433,4.221
13.5280,0.8088,3.0968,-3.9271,5.066
13.5280,0.0613,2.8585,-4.3792,5.230
13.5280,-0.6125,2.6789,-3.7662,4.662
13.5280,-0.9856,2.5670,-2.1088,3.465
13.5290,-1.0192,2.4037,-0.1374,2.614
13.5290,-0.9507,2.4495,1.4811,3.016
13.5300,-1.0882,2.2074,2.4549,3.476
13.5300,-1.0101,2.0599,3.2599,3.986
13.5300,-1.0030,2.1113,4.0148,4.646
13.5320,-1.2564,2.3217,4.8361,5.510
13.5380,-1.5087,2.6285,5.6428,6.405
13.5420,-2.0113,2.8280,6.0021,6.933
13.5470,-2.4691,3.0425,6.0644,7.220
13.5510,-2.8351,3.1427,5.9250,7.281
13.5590,-3.0068,3.0598,5.6400,7.086
13.5610,-3.0380,2.8494,5.2962,6.738
13.5650,-3.1356,2.5873,5.0276,6.465
13.6030,-3.2297,2.3189,4.9781,6.371
13.6030,-3.0590,2.0744,5.1243,6.318
13.6030,-2.7594,1.7967,5.3591,6.290
13.6040,-2.3950,1.4857,5.7388,6.394
13.6040,-2.1078,1.3118,6.1492,6.632
13.6040,-1.8936,1.2222,6.5951,6.970
13.6050,-1.7090,1.1911,7.0210,7.324
13.6050,-1.4506,1.2495,7.4492,7.691
13.6110,-1.1196,1.4116,7.7593,7.966
13.6160,-0.6818,1.6766,7.9486,8.152
13.6180,-0.4589,2.1896,7.8955,8.206
13.6230,-0.5565,2.8659,7.6509,8.189
13.6270,-0.7556,3.5305,7.2455,8.095
13.6320,-0.9567,4.0615,6.6838,7.879
13.6360,-1.1138,4.4111,6.1243,7.629
13.6430,-1.1863,4.6009,5.6180,7.358
13.6460,-1.1481,4.6449,5.1223,7.009
13.6510,-1.0594,4.5291,4.6322,6.564
13.6840,-0.9375,4.2887,4.1027,6.009
13.6840,-0.8334,3.9144,3.5786,5.369
13.6840,-0.7431,3.4894,2.9525,4.631
13.6850,-0.6172,2.9681,2.1568,3.721
13.6850,-0.5113,2.3626,1.2316,2.713
13.6850,-0.3670,1.6292,0.1484,1.677
13.6850,-0.2353,0.8348,-1.3418,1.598
13.6910,-0.1014,-0.0192,-3.2767,3.278
13.6970,0.1069,-0.9691,-5.5734,5.658
13.6990,0.3727,-1.8682,-8.1398,8.360
13.7040,0.6439,-2.7825,-10.6729,11.048
13.7080,0.8427,-3.6944,-12.8604,13.407
13.7140,0.8131,-4.2415,-13.7808,14.442
13.7180,0.5645,-4.2276,-13.4314,14.092
13.7220,0.2955,-3.7636,-12.0263,12.605
13.7290,0.0037,-3.2300,-10.1312,10.634
13.7320,-0.3054,-2.7298,-8.1319,8.583
13.7370,-0.4493,-2.4048,-6.3325,6.789
13.7490,-0.4900,-2.0988,-5.0650,5.504
13.7510,-0.3810,-1.8550,-4.2158,4.622
13.7510,-0.2338,-1.6500,-3.9520,4.289
13.7550,-0.0891,-1.4078,-3.9803,4.223
13.8040,0.0860,-1.1385,-4.0364,4.195
13.8050,0.2794,-0.8877,-3.8538,3.965
13.8060,0.6295,-0.6724,-3.2778,3.405
13.8060,1.0395,-0.4208,-2.2849,2.545
13.8060,1.4708,-0.0927,-1.0879,1.832
13.8070,1.8140,0.3097,-0.0115,1.840
13.8070,1.8672,0.7740,0.6693,2.129
13.8080,1.6225,1.4080,1.0185,2.377
13.8080,1.1896,2.1379,0.9564,2.627
13.8090,0.6297,2.7941,0.4878,2.905
13.8090,0.0711,3.3580,-0.1020,3.360
13.8130,-0.4546,3.7199,-0.7326,3.818
13.8170,-0.6843,3.7056,-1.4042,4.021
13.8220,-0.4074,3.2073,-1.6632,3.636
13.8270,0.4396,2.2058,-1.2715,2.584
13.8310,1.7376,0.8946,-0.3318,1.982
13.8350,3.0420,-0.4140,1.0970,3.260
13.8430,4.1435,-1.6938,2.8918,5.329
13.8450,5.0925,-2.8400,4.6471,7.456
13.8500,5.9224,-3.7713,6.0837,9.290
13.8550,6.6618,-4.5263,6.9025,10.607
13.8880,7.1574,-5.1486,7.2119,11.391
13.8890,7.4468,-5.5446,7.3155,11.820
13.8890,7.6969,-5.7071,7.2633,12.024
13.8900,7.6578,-5.4995,7.0459,11.770
13.8900,7.1596,-4.6943,6.6041,10.813
13.8900,6.2764,-3.4297,5.7341,9.167
13.8910,5.5087,-2.3030,4.8123,7.669
13.8940,4.9309,-1.3888,4.0497,6.530
13.8990,4.1791,-0.5395,3.3797,5.402
13.9040,3.3910,0.4082,2.4689,4.214
13.9090,2.7219,1.2433,1.9110,3.551
13.9130,2.1699,1.8886,1.7747,3.380
13.9180,1.7485,2.3153,1.7252,3.376
13.9220,1.4410,2.6456,1.6338,3.427
13.9290,1.2184,2.8005,1.4655,3.388
13.9320,1.0214,2.7350,1.2809,3.188
13.9360,0.7816,2.5166,1.1286,2.867
13.9440,0.5193,2.2486,1.0544,2.537
13.9470,0.2902,1.9218,1.0059,2.188
13.9500,0.0695,1.6372,1.0774,1.961
13.9550,-0.0300,1.2826,1.1926,1.752
13.9850,-0.1554,0.9494,1.2659,1.590
13.9860,-0.3350,0.6018,1.3526,1.518
13.9860,-0.5029,0.2572,1.4150,1.524
13.9870,-0.5463,-0.1296,1.4486,1.554
13.9870,-0.5512,-0.5848,1.4727,1.678
13.9880,-0.6945,-0.9482,1.4488,1.866
13.9920,-0.8925,-1.3060,1.2312,2.004
13.9940,-0.8588,-1.8637,1.0966,2.327
13.9980,-0.8790,-2.2392,1.2716,2.721
14.0030,-0.9683,-2.5359,1.3798,3.045
14.0080,-1.0178,-2.8068,1.4562,3.322
14.0130,-1.1648,-2.8610,1.4307,3.404
14.0170,-1.3572,-2.6966,1.5244,3.382
14.0210,-1.5832,-2.4931,1.5167,3.320
14.0290,-1.8764,-1.9969,1.3655,3.062
14.0310,-2.1287,-1.2608,1.2526,2.773
14.0350,-2.0554,-0.7006,1.4045,2.586
14.0410,-2.0557,-0.2538,1.6577,2.653
14.0500,-2.2492,0.2686,1.7686,2.874
14.0510,-2.3124,0.7783,1.9401,3.117
14.0540,-2.4723,1.2015,2.3350,3.607
14.1090,-2.7539,1.7178,2.4488,4.066
14.1100,-2.9867,2.1484,2.5351,4.468
14.1110,-3.0507,2.4149,2.5721,4.664
14.1110,-3.0008,2.5559,2.6268,4.737
14.1120,-2.9761,2.6837,2.6151,4.785
14.1120,-2.9572,2.7077,2.5753,4.765
14.1130,-2.9082,2.6209,2.6291,4.716
14.1130,-2.8077,2.4497,2.7398,4.625
14.1140,-2.7464,2.2493,2.7642,4.499
14.1140,-2.6360,1.9648,2.7227,4.269
14.1140,-2.4814,1.6154,2.6775,3.992
14.1150,-2.2924,1.2345,2.6822,3.738
14.1150,-2.0741,0.8172,2.7250,3.521
14.1210,-1.8938,0.4397,2.7954,3.405
14.1260,-1.6942,0.0754,2.8788,3.341
14.1320,-1.5733,-0.1731,2.9547,3.352
14.1360,-1.5596,-0.2896,3.0176,3.409
14.1410,-1.5974,-0.3674,2.9953,3.414
14.1450,-1.6191,-0.3515,2.9231,3.360
14.1500,-1.6218,-0.3282,2.7985,3.251
14.1540,-1.4690,-0.3693,2.6339,3.038
14.1620,-1.2139,-0.4774,2.4437,2.770
14.1650,-1.0390,-0.5648,2.2042,2.501
14.1690,-0.9043,-0.6915,1.9649,2.271
14.1730,-0.8100,-0.8341,1.7254,2.081
14.2060,-0.7637,-0.9329,1.4835,1.912
14.2070,-0.7129,-1.0216,1.2555,1.769
14.2070,-0.6242,-1.1240,1.0438,1.656
14.2080,-0.6387,-1.2019,0.7900,1.574
14.2080,-0.6011,-1.2838,0.5271,1.512
14.2080,-0.5471,-1.4057,0.2925,1.536
14.2090,-0.5534,-1.4716,0.0923,1.575
14.2110,-0.6369,-1.5795,-0.1296,1.708
14.2170,-0.6590,-1.6194,-0.2879,1.772
14.2200,-0.7274,-1.6605,-0.5626,1.898
14.2290,-0.8398,-1.6620,-0.8735,2.057
14.2320,-0.9266,-1.6429,-1.1716,2.220
14.2380,-1.0019,-1.6914,-1.5233,2.487
14.2390,-1.0654,-1.7068,-2.1366,2.935
14.2450,-1.0184,-1.8711,-2.8854,3.587
14.2490,-1.0542,-1.9670,-4.2042,4.760
14.2540,-0.9867,-1.8851,-6.1630,6.520
14.2770,-0.9639,-1.7729,-9.2675,9.485
14.2770,-0.6762,-1.8178,-10.8180,10.990
14.2780,-0.4351,-2.0042,-10.7530,10.947
14.2780,-0.4270,-2.2289,-10.5148,10.757
14.2780,-0.5477,-2.3640,-10.7635,11.034
14.2820,-0.6593,-2.6114,-11.7727,12.077
14.2880,-0.5701,-2.9747,-14.0454,14.368
14.2920,-0.1290,-3.4917,-14.8716,15.277
14.2970,0.3656,-4.1149,-11.8061,12.508
14.3020,0.3983,-4.4725,-7.6342,8.857
14.3050,0.1676,-4.3264,-4.5225,6.261
14.3100,-0.4157,-3.7617,-2.6673,4.630
14.3150,-1.1674,-3.2834,-1.6619,3.861
14.3190,-1.6369,-2.8854,-1.1828,3.522
14.3250,-1.9511,-2.6139,-0.8935,3.382
14.3290,-2.0601,-2.3932,-0.7750,3.251
14.3340,-2.1276,-2.2025,-1.0192,3.227
14.3380,-2.1931,-1.9708,-1.5436,3.328
14.3440,-2.0467,-1.7593,-2.5235,3.695
14.3490,-1.8280,-1.4898,-4.1112,4.740
14.3530,-1.5181,-1.3026,-4.9994,5.385
14.3610,-1.0524,-1.4706,-4.5353,4.883
14.3650,-0.5082,-1.9769,-3.1704,3.771
14.3680,-0.0720,-2.3867,-1.8825,3.041
14.4150,0.0569,-2.5442,-1.1669,2.800
14.4160,0.0155,-2.5398,-1.0711,2.756
14.4170,-0.0998,-2.4372,-1.4516,2.839
14.4170,-0.1568,-2.3619,-2.4100,3.378
14.4170,-0.0778,-2.3248,-3.9564,4.590
14.4180,0.1957,-2.4472,-6.1398,6.612
14.4180,0.6997,-2.7471,-8.9387,9.377
14.4190,1.5433,-3.2428,-12.3626,12.874
14.4200,2.3305,-3.7507,-15.0815,15.715
14.4200,2.5954,-4.0109,-14.6446,15.404
14.4210,2.1158,-3.9619,-11.9706,12.785
14.4240,1.5671,-3.7608,-8.8542,9.747
14.4290,0.9327,-3.6443,-6.0383,7.114
14.4330,-0.1445,-3.4495,-3.4466,4.878
14.4390,-1.3232,-3.2488,-1.4255,3.787
14.4450,-2.2502,-3.2171,0.0738,3.927
14.4480,-2.6836,-3.3777,1.0798,4.447
14.4520,-2.7852,-3.6970,1.6361,4.909
14.4860,-2.4712,-4.0054,1.9076,5.078
14.4870,-2.0534,-4.1839,2.0555,5.094
14.4870,-1.5856,-4.2930,2.1279,5.047
14.4880,-0.9830,-4.3116,2.1793,4.930
14.4880,-0.2999,-4.3717,2.3441,4.970
14.4880,0.4624,-4.4973,2.5319,5.182
14.4890,1.1686,-4.6910,2.7692,5.571
14.4920,1.9059,-4.9337,3.1181,6.140
14.4970,2.6898,-5.1342,3.4464,6.743
14.5010,3.4422,-5.3356,3.9884,7.498
14.5060,4.1794,-5.5592,4.6235,8.352
14.5100,4.7475,-5.6226,5.1003,8.953
14.5150,5.2467,-5.5686,5.6421,9.506
14.5190,5.6244,-5.4450,6.2734,10.032
14.5240,5.8851,-5.1792,7.2596,10.685
14.5300,6.0011,-4.6825,8.2478,11.223
14.5340,5.8610,-3.9083,8.5333,11.065
14.5380,5.3230,-2.8658,8.2089,10.195
14.5440,4.7355,-1.8749,7.2142,8.831
14.5490,3.9464,-0.9849,5.8172,7.098
14.5530,3.1184,-0.2600,3.7841,4.910
14.5580,2.3645,0.3268,1.7339,2.950
14.5960,1.8495,0.7223,-0.0284,1.986
14.5970,1.3408,1.0503,-1.3029,2.144
14.5970,0.7055,1.3190,-2.2151,2.673
14.5980,0.0726,1.4295,-2.9196,3.252
14.5980,-0.5064,1.3711,-3.2436,3.558
14.5980,-1.2847,1.2118,-2.9309,3.422
14.5990,-2.1884,1.2500,-1.8494,3.126
14.5990,-2.2957,1.5571,-0.0611,2.775
14.5990,-1.9282,1.7336,1.7117,3.107
14.6050,-1.4091,2.0184,3.2973,4.115
14.6100,-1.0936,2.2892,4.5220,5.185
14.6160,-1.1182,2.6231,5.3580,6.070
14.6190,-1.0860,3.0083,5.6125,6.460
14.6230,-1.1464,3.2879,5.4581,6.474
14.6280,-1.3701,3.4810,5.1435,6.360
14.6320,-1.4165,3.5877,4.9154,6.248
14.6370,-1.5506,3.5709,4.7022,6.105
14.6490,-1.9194,3.5357,4.4642,6.009
14.6500,-2.4850,3.4670,4.2763,6.040
14.6580,-2.6780,3.2221,4.2146,5.943
14.6590,-2.7425,2.9053,4.2240,5.814
14.7100,-2.7072,2.5437,4.3473,5.718
14.7100,-2.5358,2.2235,4.5441,5.659
14.7110,-2.3642,1.9625,4.7991,5.698
14.7110,-2.1442,1.7987,5.0343,5.760
14.7110,-1.8081,1.7302,5.3575,5.913
14.7110,-1.4153,1.7088,5.6813,6.099
14.7120,-1.0157,1.7942,5.9847,6.330
14.7120,-0.6116,1.8761,6.2994,6.601
14.7120,-0.1080,2.0187,6.5828,6.886
14.7120,0.4040,2.1306,6.7805,7.119
14.7130,0.7971,2.3022,6.9909,7.403
14.7160,1.0856,2.4684,7.1382,7.631
14.7190,1.2746,2.6911,7.2994,7.883
14.7230,1.3523,2.9390,7.3841,8.062
14.7330,1.3105,3.2767,7.4003,8.199
14.7340,1.1306,3.6515,7.2243,8.173
14.7380,0.9477,4.0633,6.9699,8.123
14.7460,0.7030,4.4550,6.6923,8.070
14.7490,0.4789,4.8052,6.4002,8.018
14.7520,0.2713,5.0399,6.0440,7.874
14.7580,0.1595,5.1880,5.5834,7.623
14.7910,0.1746,5.1467,5.0361,7.203
14.7920,0.2755,4.9041,4.4448,6.624
14.7920,0.4301,4.5149,3.7146,5.862
14.7920,0.5943,4.0028,2.7945,4.918
14.7930,0.7095,3.3703,1.7006,3.841
14.7930,0.7340,2.6554,0.4322,2.789
14.7930,0.7313,1.8557,-1.0740,2.265
14.7960,0.7148,0.9450,-2.9788,3.206
14.8010,0.7116,-0.1200,-5.1304,5.181
14.8090,0.6606,-1.2321,-7.5786,7.706
14.8100,0.7238,-2.4113,-10.2194,10.525
14.8140,0.9219,-3.5893,-12.7492,13.277
14.8190,0.7945,-4.5004,-14.3813,15.090
14.8230,0.6264,-5.0113,-14.8840,15.718
14.8300,0.2711,-5.2298,-14.5825,15.494
14.8330,-0.3441,-5.1552,-13.8303,14.764
14.8380,-0.9410,-4.8701,-12.7560,13.686
14.8420,-1.9013,-4.4525,-11.4283,12.411
14.8470,-2.5796,-3.9434,-10.1184,11.162
14.8520,-2.7260,-3.4297,-8.8318,9.859
14.8570,-2.2190,-3.1689,-7.3852,8.337
14.8880,-1.1787,-3.0656,-5.6877,6.568
14.8890,0.2643,-2.9744,-3.8937,4.907
14.8890,1.6929,-2.7551,-2.2284,3.927
14.8900,2.6869,-2.2510,-0.7641,3.587
14.8900,3.2250,-1.5294,0.3366,3.585
14.8910,3.2463,-0.6817,1.1190,3.501
14.8920,3.0014,0.1991,1.5943,3.404
14.8970,2.6017,1.1199,1.6792,3.293
14.9010,2.0938,2.1001,1.3420,3.255
14.9060,1.4525,3.1398,0.8708,3.567
14.9080,0.7023,4.1817,0.4530,4.264
14.9130,-0.0601,5.1330,0.0430,5.134
14.9170,-0.9046,5.8527,-0.2977,5.930
14.9220,-1.5351,6.0880,-0.4561,6.295
14.9280,-1.6533,5.8867,-0.2636,6.120
14.9310,-1.2817,5.2469,0.4310,5.418
14.9360,-0.4068,4.1540,1.6624,4.493
14.9410,0.5234,2.9564,2.7767,4.090
14.9460,1.3264,1.8644,3.7424,4.386
14.9500,2.1437,0.7888,4.8441,5.356
14.9550,2.9054,-0.2704,5.5736,6.291
14.9860,3.4702,-1.2389,5.7595,6.837
14.9870,4.0117,-2.0976,5.7084,7.286
14.9870,4.5644,-2.9084,5.5782,7.772
14.9870,5.2245,-3.7140,5.4417,8.408
14.9880,5.9709,-4.6457,5.3105,9.243
14.9880,6.7581,-5.5073,5.1897,10.146
14.9880,7.5244,-6.1672,5.0456,10.959
14.9930,8.2028,-6.6828,4.9331,11.674
14.9990,8.4179,-6.8945,4.7586,11.876
15.0020,8.2450,-6.6276,4.4761,11.487
15.0070,7.6430,-5.8495,3.9819,10.416
15.0120,6.7178,-4.7287,3.2720,8.843
15.0170,5.3356,-3.3001,2.0967,6.615
15.0210,3.8226,-1.5740,1.1497,4.291
15.0270,2.7426,-0.0549,0.8926,2.885
15.0330,2.0453,0.9563,0.8957,2.429
15.0370,1.5614,1.5367,0.7509,2.316
15.0410,1.0758,2.0309,0.4653,2.345
15.0460,0.4100,2.4341,0.0159,2.468
15.0510,-0.2418,2.6704,-0.4857,2.725
15.0560,-0.6994,2.7882,-0.6952,2.957
15.0780,-0.9078,2.7756,-0.3863,2.946
15.0790,-1.1175,2.6879,-0.0520,2.911
15.0790,-1.4663,2.5228,0.1401,2.921
15.0790,-1.8072,2.3165,0.2522,2.949
15.0790,-2.0316,2.1029,0.3307,2.943
15.0840,-2.1038,1.8846,0.3235,2.843
15.0880,-2.1262,1.6019,0.3896,2.691
15.0950,-2.1017,1.2048,0.4068,2.456
15.0980,-2.0563,0.8058,0.4308,2.250
15.1030,-1.9451,0.3451,0.4975,2.037
15.1070,-1.8137,-0.1248,0.5736,1.906
15.1120,-1.7197,-0.5584,0.6946,1.937
15.1160,-1.6352,-0.9466,0.7935,2.049
15.1210,-1.5482,-1.2393,0.9029,2.179
15.1260,-1.4976,-1.4725,0.9817,2.318
15.1320,-1.4760,-1.5866,1.0649,2.414
15.1360,-1.4980,-1.5722,1.1467,2.456
15.1400,-1.5996,-1.4007,1.1930,2.438
15.1520,-1.7062,-1.1893,1.2430,2.423
15.1530,-1.7820,-0.9594,1.2694,2.389
15.1560,-1.8840,-0.6701,1.3504,2.413
15.1600,-2.0028,-0.3860,1.4350,2.494
15.2180,-2.1017,-0.0469,1.5581,2.617
15.2180,-2.2693,0.3545,1.6068,2.803
15.2190,-2.4238,0.7561,1.7382,3.077
15.2190,-2.5023,1.0630,1.8294,3.277
15.2200,-2.5600,1.3253,1.9232,3.465
15.2200,-2.6037,1.5532,1.9760,3.619
15.2200,-2.6356,1.7323,2.0662,3.770
15.2210,-2.6366,1.7815,2.2748,3.912
15.2210,-2.5208,1.7418,2.5438,3.982
15.2210,-2.3840,1.6632,2.7530,4.004
15.2220,-2.2195,1.5361,2.9307,3.984
15.2220,-2.0514,1.3652,3.0282,3.904
15.2220,-1.8108,1.1550,3.0577,3.737
15.2250,-1.6009,0.9007,3.0642,3.573
15.2310,-1.4026,0.6688,3.0215,3.398
15.2350,-1.2497,0.5115,2.9905,3.281
15.2400,-1.0993,0.3950,2.9755,3.197
15.2460,-0.9753,0.3308,2.9117,3.089
15.2500,-0.8708,0.3067,2.7989,2.947
15.2540,-0.7501,0.3030,2.7080,2.826
15.2590,-0.7018,0.2910,2.3779,2.496
15.2890,-0.7570,0.2488,2.0316,2.182
15.2890,-0.8198,0.1765,1.7191,1.913
15.2900,-0.8565,0.0692,1.4377,1.675
15.2900,-0.8483,-0.0969,1.1513,1.433
15.2900,-0.8334,-0.2622,0.9103,1.262
15.2900,-0.7717,-0.3885,0.6477,1.080
15.2930,-0.6609,-0.5452,0.3732,0.934
15.2990,-0.5802,-0.6845,0.1124,0.904
15.3040,-0.5371,-0.8135,-0.1490,0.986
15.3070,-0.4933,-0.9775,-0.3975,1.165
15.3110,-0.3892,-1.1715,-0.6836,1.411
15.3170,-0.3349,-1.3619,-0.9791,1.710
15.3210,-0.3232,-1.4913,-1.2532,1.975
15.3250,-0.3468,-1.6240,-1.5070,2.242
15.3300,-0.3840,-1.7359,-1.7608,2.502
15.3350,-0.4324,-1.8652,-1.9517,2.734
15.3390,-0.5374,-1.9522,-2.2702,3.042
15.3470,-0.7008,-2.0182,-2.7141,3.454
15.3500,-0.8696,-2.0778,-3.3479,4.035
15.3540,-1.0330,-2.1548,-4.0957,4.742
15.3610,-1.1582,-2.2253,-4.8393,5.451
15.3810,-1.1960,-2.3209,-5.5343,6.119
15.3820,-1.1499,-2.4491,-6.2298,6.792
15.3820,-1.3080,-2.5181,-7.9570,8.448
15.3820,-1.4787,-2.4351,-9.1697,9.602
15.3830,-1.6173,-2.3562,-8.8652,9.314
15.3890,-1.6608,-2.4460,-8.2636,8.777
15.3930,-1.7562,-2.5784,-7.8056,8.406
15.3990,-1.7367,-2.7310,-7.7506,8.399
15.4020,-1.7839,-2.9662,-8.4920,9.170
15.4060,-1.7472,-3.2580,-10.6432,11.267
15.4110,-1.4925,-3.6984,-13.3875,13.969
15.4160,-0.9960,-4.1719,-12.9858,13.676
15.4200,-0.4786,-4.4374,-10.3526,11.274
15.4240,-0.2863,-4.3456,-7.3317,8.528
15.4300,-0.4525,-3.8933,-5.0502,6.393
15.4350,-0.9015,-3.4142,-3.5588,5.013
15.4390,-1.4718,-3.1592,-2.7694,4.452
15.4470,-1.8883,-2.9117,-2.7099,4.403
15.4510,-1.8985,-2.7877,-3.4447,4.821
15.4550,-1.7797,-2.7498,-4.3408,5.438
15.4590,-1.5751,-2.9000,-4.8692,5.882
15.4900,-1.3055,-3.3272,-4.8744,6.044
15.4900,-0.9504,-3.9195,-4.2353,5.848
15.4910,-0.6962,-4.3276,-3.4202,5.560
15.4910,-0.7105,-4.4073,-2.9519,5.352
15.4910,-0.8892,-4.3497,-2.9066,5.306
15.4920,-1.0078,-4.3734,-3.1717,5.496
15.4930,-0.9807,-4.4226,-3.6671,5.828
15.4980,-0.8300,-4.5751,-4.3000,6.333
15.5050,-0.5946,-4.7919,-5.2556,7.137
15.5080,-0.0909,-5.0344,-6.3300,8.088
15.5120,0.4097,-5.2687,-7.0359,8.799
15.5170,0.5218,-5.4428,-6.9200,8.819
15.5200,0.1668,-5.3251,-6.0313,8.047
15.5250,-0.4255,-4.9695,-4.6656,6.830
15.5310,-1.0251,-4.5389,-3.2129,5.655
15.5360,-1.3574,-4.1390,-1.8455,4.731
15.5390,-1.5982,-3.6895,-0.7416,4.089
15.5440,-1.5241,-3.1118,0.0698,3.466
15.5540,-1.1620,-2.5386,0.5265,2.841
15.5550,-0.6567,-2.1188,0.8961,2.392
15.5580,-0.1338,-1.8505,1.2117,2.216
15.5910,0.4172,-1.7868,1.5002,2.370
15.5920,1.1176,-1.9778,1.7556,2.871
15.5920,1.8200,-2.3090,1.9696,3.539
15.5930,2.5619,-2.6606,2.2756,4.338
15.5930,3.1915,-3.0304,2.5630,5.093
15.5930,3.7849,-3.3752,2.9644,5.874
15.5940,4.5136,-3.7285,3.6430,6.895
15.6000,5.2738,-4.0210,4.4795,8.003
15.6040,5.8242,-4.1424,5.2341,8.859
15.6070,6.4635,-4.3245,5.8686,9.743
15.6100,7.1007,-4.4689,6.6259,10.691
15.6170,7.5159,-4.2646,7.6426,11.536
15.6200,7.5785,-3.7354,8.3674,11.891
15.6250,7.3428,-2.9958,8.7274,11.792
15.6300,7.2101,-2.1930,8.6787,11.494
15.6350,6.7843,-1.1500,7.8314,10.425
15.6390,6.1763,-0.2225,7.1057,9.417
15.6480,5.5637,0.5184,6.1328,8.297
15.6490,4.9700,1.1922,4.9553,7.119
15.6540,4.3729,1.7585,3.1871,5.690
15.6580,3.8438,1.8678,-1.4298,4.506
15.6920,3.0303,1.5267,-5.4938,6.457
15.6930,2.1256,1.2981,-7.1163,7.540
15.6930,1.1506,1.1837,-6.6620,6.863
15.6930,0.6142,1.0557,-5.0814,5.226
15.6930,0.3128,0.8611,-3.1209,3.253
15.6930,0.0273,0.7771,-1.0425,1.301
15.6940,-0.1515,0.7098,1.0976,1.316
15.7000,-0.1724,0.8345,2.8642,2.988
15.7040,-0.4525,1.0810,4.3801,4.534
15.7070,-0.8505,1.4003,5.2691,5.518
15.7110,-1.3582,1.6563,5.8352,6.216
15.7150,-1.9094,2.0528,6.3084,6.903
15.7210,-2.3176,2.3141,6.4209,7.208
15.7240,-2.7957,2.5053,6.0695,7.137
